time,gFx,gFy,gFz,ax,ay,az,wx,wy,wz
2022-12-06 15:20:49.6250,0.493,-0.824,0.211,0.02,0.16,0.08,0.02,0.01,0.01
2022-12-06 15:20:56.2520,0.497,-0.836,0.21,0.29,-0.1,-0.31,0.02,0.03,0.01
2022-12-06 15:20:56.2620,0.518,-0.842,0.194,0.2,0.03,-0.24,0.02,0.04,0.01
2022-12-06 15:20:56.2720,0.534,-0.842,0.182,0.0,0.08,-0.1,0.02,0.04,0.01
2022-12-06 15:20:56.2820,0.54,-0.835,0.177,-0.15,0.07,0.02,0.02,0.03,0.0
2022-12-06 15:20:56.2920,0.533,-0.828,0.177,-0.19,0.0,0.06,0.02,0.02,0.0
2022-12-06 15:20:56.3020,0.529,-0.827,0.178,-0.12,-0.07,0.07,0.03,0.01,0.01
2022-12-06 15:20:56.3120,0.521,-0.832,0.187,-0.08,-0.06,0.04,0.02,0.01,0.01
2022-12-06 15:20:56.3220,0.516,-0.834,0.187,0.0,-0.02,-0.04,0.02,0.02,0.01
2022-12-06 15:20:56.3320,0.516,-0.831,0.188,0.04,0.0,-0.03,0.02,0.02,0.01
2022-12-06 15:20:56.3420,0.519,-0.832,0.185,0.04,-0.03,-0.04,0.02,0.02,0.02
2022-12-06 15:20:56.3520,0.525,-0.836,0.184,0.0,-0.02,0.0,0.02,0.01,0.01
2022-12-06 15:20:56.3620,0.527,-0.839,0.184,-0.05,0.02,0.01,0.02,0.0,0.01
2022-12-06 15:20:56.3720,0.527,-0.838,0.179,-0.07,0.05,0.01,0.02,-0.02,0.02
2022-12-06 15:20:56.3820,0.527,-0.836,0.178,-0.07,0.04,0.06,0.02,-0.03,0.02
2022-12-06 15:20:56.3920,0.526,-0.837,0.183,-0.07,0.02,0.06,0.01,-0.04,0.02
2022-12-06 15:20:56.4020,0.525,-0.833,0.181,-0.06,0.03,0.02,0.01,-0.04,0.02
2022-12-06 15:20:56.4120,0.521,-0.83,0.182,-0.04,-0.01,0.04,0.02,-0.02,0.02
2022-12-06 15:20:56.4220,0.516,-0.831,0.187,-0.01,-0.05,0.02,0.02,-0.02,0.02
2022-12-06 15:20:56.4320,0.513,-0.836,0.189,0.04,-0.02,-0.02,0.02,-0.02,0.02
2022-12-06 15:20:56.4420,0.511,-0.837,0.19,0.06,0.02,-0.05,0.02,-0.01,0.02
2022-12-06 15:20:56.4520,0.512,-0.832,0.186,0.08,0.02,-0.05,0.02,0.01,0.02
2022-12-06 15:20:56.4620,0.517,-0.829,0.189,0.06,-0.03,-0.01,0.02,0.03,0.01
2022-12-06 15:20:56.4720,0.518,-0.83,0.188,0.02,-0.05,-0.05,0.02,0.04,0.01
2022-12-06 15:20:56.4820,0.521,-0.83,0.185,0.01,-0.04,-0.01,0.03,0.05,0.01
2022-12-06 15:20:56.4920,0.518,-0.835,0.193,-0.02,-0.03,-0.01,0.03,0.06,0.01
2022-12-06 15:20:56.5020,0.516,-0.839,0.189,0.02,0.02,-0.06,0.03,0.07,0.0
2022-12-06 15:20:56.5120,0.518,-0.841,0.19,0.03,0.05,-0.03,0.03,0.06,0.01
2022-12-06 15:20:56.5220,0.522,-0.843,0.187,0.0,0.07,-0.02,0.03,0.05,0.01
2022-12-06 15:20:56.5320,0.523,-0.839,0.185,-0.02,0.09,0.01,0.03,0.03,0.01
2022-12-06 15:20:56.5420,0.529,-0.828,0.178,-0.05,0.03,0.04,0.04,0.01,0.01
2022-12-06 15:20:56.5520,0.525,-0.817,0.172,-0.11,-0.07,0.11,0.04,0.02,0.01
2022-12-06 15:20:56.5620,0.509,-0.807,0.176,-0.04,-0.19,0.17,0.05,0.04,-0.01
2022-12-06 15:20:56.5720,0.497,-0.814,0.186,0.12,-0.26,0.11,0.04,0.06,-0.02
2022-12-06 15:20:56.5820,0.49,-0.825,0.19,0.23,-0.17,0.04,0.05,0.1,-0.03
2022-12-06 15:20:56.5920,0.485,-0.829,0.197,0.29,-0.07,0.0,0.04,0.14,-0.04
2022-12-06 15:20:56.6020,0.49,-0.831,0.206,0.33,-0.04,-0.06,0.04,0.17,-0.05
2022-12-06 15:20:56.6120,0.5,-0.836,0.205,0.27,-0.01,-0.14,0.04,0.2,-0.06
2022-12-06 15:20:56.6220,0.497,-0.836,0.196,0.18,0.04,-0.1,0.06,0.23,-0.09
2022-12-06 15:20:56.6320,0.502,-0.85,0.18,0.23,0.05,0.0,0.05,0.21,-0.09
2022-12-06 15:20:56.6420,0.509,-0.852,0.2,0.16,0.21,0.18,0.02,0.18,-0.09
2022-12-06 15:20:56.6520,0.548,-0.816,0.195,0.1,0.2,-0.07,0.05,0.13,-0.05
2022-12-06 15:20:56.6620,0.561,-0.729,0.175,-0.32,-0.28,0.08,0.03,0.11,-0.03
2022-12-06 15:20:56.6720,0.592,-0.829,0.226,-0.41,-0.95,0.19,-0.04,0.08,-0.01
2022-12-06 15:20:56.6820,0.574,-0.89,0.223,-0.73,0.14,-0.32,-0.02,0.01,-0.04
2022-12-06 15:20:56.6920,0.483,-0.858,0.173,-0.42,0.58,-0.15,-0.03,-0.05,-0.08
2022-12-06 15:20:56.7020,0.444,-0.803,0.201,0.48,0.23,0.21,0.02,-0.07,-0.12
2022-12-06 15:20:56.7120,0.471,-0.775,0.161,0.77,-0.34,0.01,0.06,0.03,-0.1
2022-12-06 15:20:56.7220,0.526,-0.839,0.221,0.45,-0.47,0.36,0.02,0.14,-0.07
2022-12-06 15:20:56.7320,0.555,-0.882,0.236,-0.06,0.2,-0.29,0.0,0.12,-0.03
2022-12-06 15:20:56.7420,0.587,-0.87,0.211,-0.34,0.54,-0.29,-0.01,0.02,0.01
2022-12-06 15:20:56.7520,0.614,-0.863,0.217,-0.65,0.39,-0.12,-0.01,-0.06,0.04
2022-12-06 15:20:56.7620,0.623,-0.857,0.201,-0.9,0.34,-0.15,-0.0,-0.14,0.08
2022-12-06 15:20:56.7720,0.6,-0.829,0.195,-0.96,0.26,-0.01,0.0,-0.19,0.11
2022-12-06 15:20:56.7820,0.559,-0.816,0.193,-0.7,-0.03,0.03,0.0,-0.21,0.12
2022-12-06 15:20:56.7920,0.531,-0.823,0.2,-0.31,-0.13,0.03,-0.0,-0.2,0.12
2022-12-06 15:20:56.8020,0.518,-0.829,0.207,-0.06,-0.06,-0.06,-0.01,-0.18,0.13
2022-12-06 15:20:56.8120,0.516,-0.827,0.212,0.04,-0.01,-0.13,-0.02,-0.17,0.12
2022-12-06 15:20:56.8220,0.528,-0.829,0.208,0.05,-0.04,-0.19,-0.01,-0.22,0.14
2022-12-06 15:20:56.8320,0.545,-0.812,0.181,-0.1,-0.04,-0.12,0.01,-0.24,0.16
2022-12-06 15:20:56.8420,0.542,-0.8,0.182,-0.26,-0.22,0.12,0.01,-0.21,0.17
2022-12-06 15:20:56.8520,0.52,-0.811,0.197,-0.21,-0.33,0.05,-0.0,-0.2,0.13
2022-12-06 15:20:56.8620,0.469,-0.834,0.207,0.04,-0.2,-0.09,-0.02,-0.2,0.06
2022-12-06 15:20:56.8720,0.464,-0.837,0.193,0.53,0.01,-0.2,-0.02,-0.19,0.05
2022-12-06 15:20:56.8820,0.489,-0.833,0.188,0.5,0.02,-0.04,-0.02,-0.15,0.06
2022-12-06 15:20:56.8920,0.508,-0.841,0.188,0.27,-0.01,-0.03,-0.02,-0.09,0.06
2022-12-06 15:20:56.9020,0.509,-0.856,0.194,0.09,0.08,-0.04,-0.02,-0.03,0.05
2022-12-06 15:20:56.9140,0.489,-0.843,0.187,0.1,0.2,-0.09,-0.01,0.03,0.02
2022-12-06 15:20:56.9220,0.461,-0.818,0.182,0.33,0.06,-0.02,-0.01,0.03,0.02
2022-12-06 15:20:56.9320,0.446,-0.794,0.179,0.59,-0.21,0.04,0.02,0.09,-0.04
2022-12-06 15:20:56.9420,0.455,-0.783,0.17,0.72,-0.41,0.06,0.03,0.15,-0.06
2022-12-06 15:20:56.9520,0.446,-0.824,0.208,0.61,-0.5,0.16,-0.04,0.24,-0.13
2022-12-06 15:20:56.9620,0.429,-0.87,0.201,0.76,0.0,-0.28,-0.02,0.26,-0.19
2022-12-06 15:20:56.9720,0.492,-0.785,0.127,0.86,0.31,-0.02,-0.05,0.31,-0.21
2022-12-06 15:20:56.9820,0.511,-0.807,0.192,0.22,-0.53,0.58,-0.13,0.24,-0.22
2022-12-06 15:20:56.9920,0.508,-0.819,0.194,0.12,-0.19,-0.08,-0.1,0.17,-0.21
2022-12-06 15:20:57.0020,0.501,-0.73,0.108,0.17,-0.14,0.01,0.04,0.11,-0.22
2022-12-06 15:20:57.0120,0.484,-0.695,0.101,0.25,-1.14,0.92,0.09,0.13,-0.29
2022-12-06 15:20:57.0220,0.436,-0.848,0.152,0.49,-1.15,0.81,0.09,0.16,-0.41
2022-12-06 15:20:57.0320,0.446,-0.969,0.147,0.98,0.43,0.38,0.18,0.15,-0.43
2022-12-06 15:20:57.0420,0.54,-0.879,0.143,0.78,1.44,0.53,0.21,0.11,-0.3
2022-12-06 15:20:57.0520,0.607,-0.848,0.236,-0.16,0.45,0.44,0.1,-0.08,-0.26
2022-12-06 15:20:57.0620,0.417,-1.301,0.39,-0.66,0.36,-0.46,-0.3,-0.24,-0.39
2022-12-06 15:20:57.0720,0.214,-1.429,0.161,1.71,5.83,-2.17,0.12,0.12,-0.37
2022-12-06 15:20:57.0820,0.35,-0.343,-0.072,3.15,4.75,1.11,0.29,0.1,-0.37
2022-12-06 15:20:57.0920,0.316,-0.15,0.206,1.88,-5.39,2.26,0.27,0.24,-0.58
2022-12-06 15:20:57.1020,0.424,-0.467,0.156,2.36,-6.17,-0.13,0.37,0.31,-0.73
2022-12-06 15:20:57.1120,0.575,-0.738,0.088,1.05,-2.87,0.69,0.32,0.19,-0.74
2022-12-06 15:20:57.1220,0.501,-0.921,0.17,-0.09,-0.34,1.1,0.25,-0.03,-0.74
2022-12-06 15:20:57.1320,0.465,-0.953,0.157,0.79,1.4,0.39,0.26,-0.28,-0.7
2022-12-06 15:20:57.1420,0.521,-0.828,0.151,1.05,1.49,0.56,0.33,-0.4,-0.69
2022-12-06 15:20:57.1520,0.578,-0.731,0.169,0.54,0.28,0.6,0.37,-0.44,-0.73
2022-12-06 15:20:57.1620,0.59,-0.716,0.205,0.06,-0.53,0.39,0.38,-0.49,-0.8
2022-12-06 15:20:57.1720,0.524,-0.752,0.221,0.12,-0.53,0.04,0.38,-0.54,-0.84
2022-12-06 15:20:57.1820,0.464,-0.784,0.234,0.89,-0.11,-0.1,0.37,-0.57,-0.85
2022-12-06 15:20:57.1920,0.46,-0.798,0.24,1.5,0.25,-0.23,0.36,-0.56,-0.85
2022-12-06 15:20:57.2020,0.534,-0.76,0.223,1.52,0.4,-0.28,0.35,-0.48,-0.88
2022-12-06 15:20:57.2120,0.629,-0.687,0.171,0.81,0.03,-0.08,0.36,-0.42,-0.94
2022-12-06 15:20:57.2220,0.708,-0.674,0.142,-0.03,-0.61,0.45,0.39,-0.44,-0.93
2022-12-06 15:20:57.2320,0.759,-0.741,0.186,-0.7,-0.55,0.65,0.4,-0.51,-0.86
2022-12-06 15:20:57.2420,0.765,-0.8,0.221,-1.09,0.21,0.17,0.38,-0.64,-0.82
2022-12-06 15:20:57.2520,0.761,-0.811,0.218,-1.02,0.79,-0.14,0.38,-0.74,-0.78
2022-12-06 15:20:57.2630,0.763,-0.786,0.223,-0.94,0.91,-0.11,0.4,-0.74,-0.74
2022-12-06 15:20:57.2720,0.715,-0.773,0.235,-0.85,0.7,-0.19,0.42,-0.72,-0.73
2022-12-06 15:20:57.2820,0.657,-0.772,0.282,-0.26,0.67,-0.38,0.39,-0.66,-0.76
2022-12-06 15:20:57.2920,0.642,-0.744,0.295,0.33,0.7,-0.85,0.37,-0.62,-0.78
2022-12-06 15:20:57.3020,0.666,-0.72,0.293,0.49,0.46,-0.95,0.39,-0.67,-0.77
2022-12-06 15:20:57.3120,0.698,-0.744,0.33,0.3,0.32,-0.97,0.39,-0.67,-0.77
2022-12-06 15:20:57.3220,0.748,-0.801,0.36,0.03,0.68,-1.4,0.36,-0.94,-0.6
2022-12-06 15:20:57.3320,0.802,-0.816,0.342,-0.44,1.28,-1.68,0.33,-0.98,-0.55
2022-12-06 15:20:57.3420,0.797,-0.781,0.317,-0.85,1.4,-1.51,0.33,-0.98,-0.55
2022-12-06 15:20:57.3520,0.766,-0.769,0.301,-0.7,1.06,-1.33,0.44,-0.82,-0.48
2022-12-06 15:20:57.3620,0.711,-0.82,0.292,-0.32,1.09,-1.2,0.5,-0.61,-0.43
2022-12-06 15:20:57.3720,0.683,-0.887,0.264,0.27,1.67,-1.13,0.51,-0.43,-0.41
2022-12-06 15:20:57.3820,0.735,-0.919,0.204,0.48,2.34,-0.8,0.43,-0.1,-0.29
2022-12-06 15:20:57.3920,0.747,-1.008,0.088,-0.05,2.67,-0.13,0.34,0.06,0.07
2022-12-06 15:20:57.4020,0.622,-1.112,0.062,-0.02,3.65,1.01,0.2,-0.02,0.46
2022-12-06 15:20:57.4120,0.507,-1.137,0.067,1.28,4.55,1.15,0.04,-0.22,0.9
2022-12-06 15:20:57.4220,0.445,-1.068,0.131,2.23,4.6,1.07,-0.17,-0.27,1.24
2022-12-06 15:20:57.4320,0.381,-1.03,0.12,2.79,3.81,0.39,-0.31,-0.22,1.59
2022-12-06 15:20:57.4420,0.359,-1.006,0.121,3.24,3.36,0.57,-0.44,-0.2,1.89
2022-12-06 15:20:57.4520,0.352,-0.998,0.181,3.32,3.0,0.39,-0.61,-0.1,2.14
2022-12-06 15:20:57.4620,0.38,-0.962,0.212,3.2,2.77,-0.24,-0.71,0.11,2.24
2022-12-06 15:20:57.4720,0.387,-0.84,0.219,2.76,2.17,-0.54,-0.69,0.28,2.22
2022-12-06 15:20:57.4820,0.381,-0.685,0.214,2.56,0.73,-0.62,-0.54,0.45,2.13
2022-12-06 15:20:57.4920,0.394,-0.594,0.245,2.44,-0.9,-0.59,-0.4,0.68,2.02
2022-12-06 15:20:57.5020,0.41,-0.566,0.287,2.14,-1.81,-0.93,-0.27,0.97,1.88
2022-12-06 15:20:57.5120,0.435,-0.562,0.282,1.83,-2.16,-1.27,-0.15,1.18,1.7
2022-12-06 15:20:57.5220,0.494,-0.573,0.255,1.4,-2.28,-1.11,-0.09,1.28,1.49
2022-12-06 15:20:57.5320,0.587,-0.591,0.228,0.64,-2.24,-0.78,-0.09,1.22,1.29
2022-12-06 15:20:57.5420,0.7,-0.615,0.193,-0.42,-2.14,-0.45,-0.11,1.01,1.15
2022-12-06 15:20:57.5520,0.817,-0.622,0.185,-1.65,-1.96,-0.05,-0.5,1.78,0.97
2022-12-06 15:20:57.5620,0.843,-0.554,0.422,-2.91,-2.05,-0.28,-0.08,0.44,0.94
2022-12-06 15:20:57.5720,0.851,-0.65,0.026,-3.02,-2.49,-1.49,-0.11,0.77,0.81
2022-12-06 15:20:57.5820,0.819,-0.606,0.113,-3.28,-2.01,1.03,0.16,0.1,0.88
2022-12-06 15:20:57.5920,0.814,-0.687,0.029,-3.02,-2.06,1.31,0.17,-0.38,0.91
2022-12-06 15:20:57.6020,0.663,-0.689,0.318,-2.95,-1.57,1.2,0.2,-0.51,0.94
2022-12-06 15:20:57.6120,0.665,-0.842,0.124,-1.5,-1.39,-1.12,0.2,-0.51,0.94
2022-12-06 15:20:57.6220,0.714,-0.889,0.246,-1.74,0.06,0.63,0.29,-1.05,0.93
2022-12-06 15:20:57.6320,0.748,-0.84,0.173,-2.34,0.31,-0.62,0.3,-1.16,0.92
2022-12-06 15:20:57.6420,0.588,-0.803,0.178,-2.54,-0.22,0.27,0.2,-1.43,0.83
2022-12-06 15:20:57.6520,0.461,-0.747,0.37,-0.84,-0.64,-0.27,0.13,-1.38,0.8
2022-12-06 15:20:57.6620,0.498,-0.74,0.344,0.1,-1.17,-1.97,0.15,-1.36,0.83
2022-12-06 15:20:57.6720,0.507,-0.689,0.315,-0.36,-1.3,-1.68,0.24,-1.27,0.84
2022-12-06 15:20:57.6820,0.425,-0.676,0.257,-0.38,-1.84,-1.41,0.34,-1.29,0.77
2022-12-06 15:20:57.6920,0.383,-0.759,0.198,0.42,-1.9,-0.85,0.33,-0.95,0.65
2022-12-06 15:20:57.7020,0.503,-0.836,0.169,0.6,-1.03,-0.34,0.33,-0.88,0.52
2022-12-06 15:20:57.7120,0.557,-0.856,0.164,-0.63,-0.36,-0.02,0.25,-0.81,0.43
2022-12-06 15:20:57.7220,0.524,-0.802,0.236,-1.09,-0.27,-0.16,0.19,-0.85,0.39
2022-12-06 15:20:57.7320,0.415,-0.723,0.216,-0.65,-0.88,-0.8,0.19,-0.85,0.35
2022-12-06 15:20:57.7420,0.398,-0.683,0.263,0.38,-1.64,-0.61,0.19,-0.85,0.35
2022-12-06 15:20:57.7520,0.41,-0.709,0.319,0.4,-1.99,-1.19,0.17,-0.92,0.36
2022-12-06 15:20:57.7620,0.388,-0.788,0.32,0.33,-1.64,-1.7,0.19,-0.88,0.35
2022-12-06 15:20:57.7720,0.397,-0.862,0.275,0.52,-0.87,-1.65,0.27,-0.83,0.37
2022-12-06 15:20:57.7820,0.413,-0.921,0.246,0.37,-0.17,-1.23,0.38,-0.76,0.41
2022-12-06 15:20:57.7920,0.428,-0.968,0.207,0.19,0.39,-0.95,0.47,-0.67,0.45
2022-12-06 15:20:57.8020,0.413,-0.953,0.176,0.03,0.79,-0.54,0.55,-0.54,0.49
2022-12-06 15:20:57.8120,0.367,-0.932,0.145,0.2,0.55,-0.23,0.64,-0.34,0.53
2022-12-06 15:20:57.8230,0.352,-0.994,0.119,0.6,0.42,0.13,0.71,-0.14,0.52
2022-12-06 15:20:57.8330,0.335,-1.141,0.178,0.65,1.1,0.39,0.71,0.02,0.38
2022-12-06 15:20:57.8420,0.375,-1.244,0.331,0.83,2.66,-0.25,0.71,0.02,0.38
2022-12-06 15:20:57.8520,0.477,-1.207,0.422,0.24,3.38,-1.74,0.46,0.08,0.53
2022-12-06 15:20:57.8620,0.516,-1.145,0.406,-0.78,3.05,-2.45,0.41,-0.08,0.63
2022-12-06 15:20:57.8720,0.486,-1.119,0.345,-1.09,2.25,-2.14,0.4,-0.15,0.72
2022-12-06 15:20:57.8820,0.458,-1.126,0.267,-0.85,2.33,-1.54,0.5,-0.29,0.68
2022-12-06 15:20:57.8920,0.429,-0.969,0.222,-0.59,1.91,-0.64,0.54,-0.24,0.72
2022-12-06 15:20:57.9020,0.53,-1.085,0.325,-0.51,0.7,-0.41,0.54,-0.24,0.72
2022-12-06 15:20:57.9120,0.546,-1.047,0.329,-1.59,1.87,-1.39,0.43,-0.29,0.9
2022-12-06 15:20:57.9220,0.473,-0.89,0.277,-1.65,1.12,-1.2,0.34,-0.27,0.82
2022-12-06 15:20:57.9320,0.428,-0.923,0.298,-1.01,-0.25,-0.83,0.38,-0.31,0.72
2022-12-06 15:20:57.9420,0.39,-0.874,0.142,-0.63,0.17,-0.86,0.48,-0.23,0.73
2022-12-06 15:20:57.9520,0.523,-0.908,0.213,-0.47,-0.5,0.73,0.32,-0.3,0.85
2022-12-06 15:20:57.9620,0.453,-0.895,0.288,-1.85,0.05,-0.33,0.26,-0.53,0.71
2022-12-06 15:20:57.9720,0.302,-0.733,0.224,-0.85,-0.43,-0.7,0.23,-0.76,0.63
2022-12-06 15:20:57.9820,0.315,-0.687,0.201,0.34,-1.94,-0.16,0.31,-1.19,0.72
2022-12-06 15:20:57.9930,0.306,-0.594,0.222,0.18,-2.41,0.04,0.32,-1.51,0.94
2022-12-06 15:20:58.0030,0.273,-0.633,0.266,0.17,-3.27,-0.27,0.26,-1.72,1.15
2022-12-06 15:20:58.0120,0.155,-0.63,0.274,0.56,-2.81,-0.69,0.2,-1.83,1.27
2022-12-06 15:20:58.0230,0.052,-0.538,0.265,1.65,-3.08,-0.78,0.16,-1.85,1.25
2022-12-06 15:20:58.0330,-0.043,-0.477,0.17,2.58,-3.95,-0.7,0.3,-1.73,1.11
2022-12-06 15:20:58.0430,-0.125,-0.373,0.039,3.4,-4.66,0.39,0.43,-1.53,0.89
2022-12-06 15:20:58.0520,-0.196,-0.433,0.115,4.21,-5.57,1.46,0.49,-1.27,0.8
2022-12-06 15:20:58.0630,-0.102,-0.501,0.154,4.66,-4.86,0.62,0.6,-1.12,0.86
2022-12-06 15:20:58.0730,-0.058,-0.543,0.196,3.63,-4.28,0.34,0.64,-1.09,0.93
2022-12-06 15:20:58.0820,-0.058,-0.6,0.235,3.23,-3.86,-0.08,0.6,-1.02,0.98
2022-12-06 15:20:58.0920,-0.083,-0.665,0.209,3.16,-3.3,-0.39,0.51,-0.92,1.63
2022-12-06 15:20:58.1020,-0.245,-0.76,0.36,3.4,-2.69,-0.03,-0.08,-1.34,2.13
2022-12-06 15:20:58.1120,-0.194,-0.711,0.356,4.81,-1.79,-2.02,0.02,-1.22,2.11
2022-12-06 15:20:58.1230,-0.162,-0.555,-0.042,3.86,-2.69,-1.02,0.18,-1.11,1.84
2022-12-06 15:20:58.1330,-0.13,-0.533,-0.113,3.61,-4.03,2.49,0.3,-0.99,1.56
2022-12-06 15:20:58.1430,0.104,-0.39,0.015,2.89,-4.31,2.97,0.31,-0.89,1.4
2022-12-06 15:20:58.1520,0.205,-0.284,0.108,0.46,-5.86,1.55,0.3,-0.99,1.4
2022-12-06 15:20:58.1620,0.084,-0.327,0.11,-0.35,-6.71,0.85,0.28,-1.19,1.44
2022-12-06 15:20:58.1730,-0.027,-0.453,0.145,0.86,-6.19,0.81,0.24,-1.32,1.49
2022-12-06 15:20:58.1820,-0.091,-0.649,0.156,1.73,-4.86,0.48,0.18,-1.36,1.49
2022-12-06 15:20:58.1920,-0.169,-0.846,0.146,2.25,-2.92,0.39,0.07,-1.35,1.46
2022-12-06 15:20:58.2020,-0.218,-0.995,0.133,2.9,-1.04,0.5,-0.07,-1.45,1.47
2022-12-06 15:20:58.2120,-0.208,-1.022,0.147,3.2,0.3,0.58,-0.21,-1.68,1.55
2022-12-06 15:20:58.2230,-0.162,-0.95,0.147,2.92,0.38,0.39,-0.32,-1.91,1.63
2022-12-06 15:20:58.2330,-0.108,-0.893,0.105,2.32,-0.39,0.4,-0.38,-1.97,1.67
2022-12-06 15:20:58.2430,-0.079,-0.908,0.061,1.69,-0.9,0.78,-0.43,-1.87,1.65
2022-12-06 15:20:58.2530,-0.089,-1.019,0.039,1.32,-0.66,1.14,-0.51,-1.7,1.58
2022-12-06 15:20:58.2630,-0.132,-1.182,0.027,1.34,0.53,1.27,-0.65,-1.64,1.5
2022-12-06 15:20:58.2730,-0.161,-1.268,-0.0,1.66,2.08,1.32,-0.78,-1.72,1.42
2022-12-06 15:20:58.2830,-0.134,-1.253,-0.054,1.79,2.76,1.55,-0.87,-1.92,1.34
2022-12-06 15:20:58.2930,-0.046,-1.175,-0.108,1.34,2.51,1.99,-0.88,-2.24,1.27
2022-12-06 15:20:58.3030,0.067,-1.098,-0.142,0.34,1.69,2.42,-0.83,-2.58,1.21
2022-12-06 15:20:58.3130,0.182,-1.063,-0.162,-0.87,0.97,2.65,-0.75,-2.81,1.18
2022-12-06 15:20:58.3230,0.244,-1.095,-0.223,-2.04,0.67,2.79,-0.61,-2.89,1.17
2022-12-06 15:20:58.3330,0.222,-1.216,-0.336,-2.63,1.11,3.42,-0.44,-2.92,1.14
2022-12-06 15:20:58.3430,0.164,-1.289,-0.408,-2.41,2.33,4.49,-0.3,-3.0,1.06
2022-12-06 15:20:58.3530,0.15,-1.232,-0.462,-1.94,2.89,5.12,-0.1,-3.1,1.0
2022-12-06 15:20:58.3630,0.144,-1.083,-0.488,-1.92,2.2,5.67,-0.1,-3.1,1.0
2022-12-06 15:20:58.3730,0.086,-0.931,-0.407,-1.88,0.67,5.83,0.15,-3.24,0.93
2022-12-06 15:20:58.3830,-0.069,-0.893,-0.283,-1.26,-0.73,4.96,-0.09,-3.02,0.93
2022-12-06 15:20:58.3930,-0.335,-1.06,-0.286,0.33,-0.87,3.84,0.29,-3.06,1.54
2022-12-06 15:20:58.4030,-0.947,-1.503,0.024,3.04,0.93,3.91,-1.52,0.32,-0.61
2022-12-06 15:20:58.4130,-1.541,-4.689,0.888,9.71,6.57,-0.25,-3.44,3.66,-6.21
2022-12-06 15:20:58.4230,0.967,-7.994,-0.136,14.86,42.78,-8.28,-0.34,2.51,-2.32
2022-12-06 15:20:58.4330,6.721,-3.018,-0.095,-16.78,67.16,3.9,-0.57,3.51,4.59
2022-12-06 15:20:58.4430,3.418,2.966,0.8,-68.59,10.73,0.02,-1.2,-2.63,3.82
2022-12-06 15:20:58.4530,-2.311,2.107,0.047,-25.26,-42.02,-7.87,-1.11,-3.74,0.75
2022-12-06 15:20:58.4630,-1.919,-0.643,-0.965,24.74,-26.0,2.3,-1.04,-1.71,0.33
2022-12-06 15:20:58.4730,-0.061,-1.423,-0.638,14.98,-2.04,9.26,-0.6,-0.19,0.68
2022-12-06 15:20:58.4830,-0.177,-1.809,-0.418,-0.9,5.02,6.6,-0.42,0.33,0.9
2022-12-06 15:20:58.4930,-0.646,-1.189,0.257,1.47,7.68,3.33,-0.38,0.72,0.75
2022-12-06 15:20:58.5030,-0.722,-0.541,0.221,5.64,0.87,-2.59,-0.34,1.04,0.32
2022-12-06 15:20:58.5130,-0.542,-0.701,0.316,5.94,-4.73,-2.02,-0.52,1.34,0.1
2022-12-06 15:20:58.5230,-0.346,-1.194,0.425,3.96,-2.26,-3.28,-0.79,1.08,0.08
2022-12-06 15:20:58.5330,-0.304,-1.31,0.246,2.28,2.38,-4.17,-0.89,0.52,0.04
2022-12-06 15:20:58.5430,0.008,-1.023,-0.093,1.74,2.87,-2.15,-0.8,0.19,0.14
2022-12-06 15:20:58.5530,0.314,-0.859,-0.239,-1.65,-0.08,1.04,-0.72,-0.17,0.28
2022-12-06 15:20:58.5630,0.218,-0.978,-0.199,-4.27,-1.29,2.05,-0.7,-0.67,0.42
2022-12-06 15:20:58.5730,-0.049,-1.073,-0.102,-2.96,0.05,1.53,-0.73,-0.97,0.46
2022-12-06 15:20:58.5830,-0.271,-1.004,-0.034,-0.38,0.78,0.45,-0.69,-0.77,0.33
2022-12-06 15:20:58.5930,-0.417,-0.93,-0.104,1.67,0.0,-0.09,-0.6,-0.33,0.17
2022-12-06 15:20:58.6030,-0.468,-0.924,-0.17,2.98,-0.65,0.6,-0.51,0.07,0.05
2022-12-06 15:20:58.6130,-0.42,-0.953,-0.153,3.36,-0.62,1.13,-0.46,0.2,-0.03
2022-12-06 15:20:58.6230,-0.261,-0.979,-0.111,2.76,-0.34,0.82,-0.43,0.09,-0.05
2022-12-06 15:20:58.6330,-0.068,-1.005,-0.143,1.09,-0.07,0.43,-0.43,-0.15,-0.03
2022-12-06 15:20:58.6430,0.032,-1.011,-0.169,-0.74,0.17,0.76,-0.44,-0.41,0.05
2022-12-06 15:20:58.6530,0.036,-1.012,-0.143,-1.59,0.2,0.93,-0.45,-0.62,0.11
2022-12-06 15:20:58.6630,-0.016,-1.021,-0.056,-1.54,0.23,0.54,-0.49,-0.79,0.19
2022-12-06 15:20:58.6730,-0.044,-1.038,0.039,-1.05,0.33,-0.39,-0.53,-0.84,0.23
2022-12-06 15:20:58.6830,-0.064,-1.048,0.071,-0.86,0.51,-1.32,-0.58,-0.85,0.25
2022-12-06 15:20:58.6930,-0.099,-1.045,0.063,-0.65,0.6,-1.6,-0.63,-0.89,0.23
2022-12-06 15:20:58.7030,-0.082,-1.028,-0.014,-0.36,0.56,-1.51,-0.65,-0.86,0.2
2022-12-06 15:20:58.7130,-0.01,-1.014,-0.112,-0.65,0.39,-0.73,-0.63,-0.9,0.24
2022-12-06 15:20:58.7230,0.026,-1.015,-0.161,-1.4,0.28,0.15,-0.61,-1.01,0.29
2022-12-06 15:20:58.7330,-0.031,-0.996,-0.175,-1.68,0.29,0.51,-0.59,-1.13,0.32
2022-12-06 15:20:58.7430,-0.113,-0.99,-0.16,-1.09,0.11,0.6,-0.59,-1.17,0.32
2022-12-06 15:20:58.7530,-0.139,-0.998,-0.117,-0.36,0.1,0.34,-0.57,-1.12,0.34
2022-12-06 15:20:58.7630,-0.111,-0.999,-0.09,-0.23,0.19,-0.09,-0.59,-1.02,0.34
2022-12-06 15:20:58.7730,-0.055,-0.995,-0.093,-0.6,0.19,-0.39,-0.57,-0.98,0.4
2022-12-06 15:20:58.7830,0.011,-1.046,-0.106,-1.21,0.21,-0.34,-0.56,-0.93,0.48
2022-12-06 15:20:58.7930,0.109,-1.081,-0.143,-1.95,0.77,-0.27,-0.56,-0.88,0.54
2022-12-06 15:20:58.8030,0.149,-1.108,-0.178,-2.97,1.07,0.1,-0.59,-0.9,0.63
2022-12-06 15:20:58.8130,0.114,-1.136,-0.22,-3.32,1.39,0.37,-0.61,-0.99,0.71
2022-12-06 15:20:58.8230,0.094,-1.149,-0.267,-3.02,1.64,0.78,-0.7,-1.17,0.8
2022-12-06 15:20:58.8330,0.152,-1.094,-0.258,-2.99,1.81,1.15,-0.66,-1.37,0.95
2022-12-06 15:20:58.8430,0.214,-0.983,-0.171,-3.78,1.08,0.98,-0.66,-1.28,1.11
2022-12-06 15:20:58.8530,0.069,-1.094,-0.0,-4.32,0.27,-0.12,-0.71,-1.2,1.19
2022-12-06 15:20:58.8630,-0.126,-1.142,0.022,-2.82,1.49,-1.68,-0.73,-1.06,1.18
2022-12-06 15:20:58.8730,-0.171,-1.114,-0.004,-1.16,1.84,-1.83,-0.73,-1.06,1.18
2022-12-06 15:20:58.8830,-0.157,-1.149,0.06,-1.01,1.61,-1.68,-0.77,-0.79,1.28
2022-12-06 15:20:58.8930,-0.124,-1.205,0.082,-1.28,2.12,-2.38,-0.83,-0.78,1.35
2022-12-06 15:20:58.9030,-0.022,-1.22,0.143,-1.82,2.65,-2.64,-0.95,-0.84,1.47
2022-12-06 15:20:58.9130,0.064,-1.259,0.143,-3.01,2.87,-3.31,-1.04,-0.98,1.62
2022-12-06 15:20:58.9230,0.065,-1.304,0.156,-3.94,3.34,-3.29,-1.14,-1.19,1.76
2022-12-06 15:20:58.9330,0.026,-1.366,0.203,-4.03,3.89,-3.56,-1.3,-1.49,1.9
2022-12-06 15:20:58.9430,0.075,-1.426,0.306,-3.9,4.6,-4.11,-1.3,-1.49,1.9
2022-12-06 15:20:58.9530,0.202,-1.433,0.46,-4.75,5.27,-5.28,-1.77,-2.59,2.33
2022-12-06 15:20:58.9630,0.325,-1.331,0.633,-6.29,5.36,-6.88,-1.88,-3.27,2.67
2022-12-06 15:20:58.9730,0.39,-1.162,0.878,-7.75,4.37,-8.6,-1.91,-3.89,3.02
2022-12-06 15:20:58.9830,0.414,-1.076,1.1,-8.65,2.92,-11.09,-1.89,-4.17,3.4
2022-12-06 15:20:58.9930,0.378,-1.147,1.26,-9.22,2.48,-13.1,-1.91,-4.02,3.8
2022-12-06 15:20:59.0030,0.223,-1.279,1.28,-9.13,3.55,-14.52,-2.04,-3.59,4.12
2022-12-06 15:20:59.0130,-0.075,-1.446,1.169,-7.84,5.17,-14.45,-2.19,-3.26,4.33
2022-12-06 15:20:59.0230,-0.474,-1.679,1.021,-5.11,7.14,-13.24,-2.07,-3.22,4.27
2022-12-06 15:20:59.0330,-0.807,-2.055,1.024,-1.55,9.94,-11.8,-2.25,-2.82,3.87
2022-12-06 15:20:59.0430,-0.94,-2.111,1.025,1.23,13.87,-12.01,-2.69,-2.18,3.41
2022-12-06 15:20:59.0530,-0.879,-1.719,0.731,2.0,14.04,-11.75,-2.83,-1.42,3.0
2022-12-06 15:20:59.0630,-0.698,-1.313,0.291,1.0,10.21,-8.65,-2.71,-0.35,2.67
2022-12-06 15:20:59.0730,-0.574,-1.098,-0.188,-1.0,6.66,-4.4,-2.59,0.86,2.45
2022-12-06 15:20:59.0830,-0.716,-1.124,-0.57,-2.07,5.08,0.11,-2.41,0.81,2.15
2022-12-06 15:20:59.0930,-0.989,-1.311,-0.57,-0.47,5.83,3.3,-2.24,-0.86,1.7
2022-12-06 15:20:59.1030,-1.063,-1.406,-0.209,2.02,7.89,2.76,-2.08,-2.42,1.12
2022-12-06 15:20:59.1130,-0.751,-1.26,-0.137,2.21,8.69,-0.79,-1.68,-2.93,0.66
2022-12-06 15:20:59.1230,-0.192,-0.916,-0.363,-1.42,7.06,-0.67,-0.95,-3.07,0.38
2022-12-06 15:20:59.1330,0.181,-0.506,-0.414,-6.97,3.57,1.64,-0.06,-2.89,0.16
2022-12-06 15:20:59.1430,0.243,-0.119,-0.374,-10.32,-0.45,2.22,0.8,-2.69,-0.25
2022-12-06 15:20:59.1530,0.082,0.192,-0.188,-10.58,-4.21,1.97,1.36,-2.6,-0.81
2022-12-06 15:20:59.1630,-0.176,0.335,0.054,-8.87,-7.25,0.25,1.36,-2.6,-0.81
2022-12-06 15:20:59.1730,-0.551,0.205,0.096,-6.14,-8.42,-1.72,1.6,-2.5,-1.26
2022-12-06 15:20:59.1830,-0.892,0.028,-0.056,-2.34,-7.13,-1.55,2.1,-1.56,-2.27
2022-12-06 15:20:59.1930,-1.139,-0.182,-0.123,1.04,-5.6,0.25,2.42,-1.06,-2.94
2022-12-06 15:20:59.2030,-1.219,-0.431,0.004,3.47,-3.72,0.86,2.49,-0.61,-3.6
2022-12-06 15:20:59.2130,-1.073,-0.586,0.083,4.2,-1.59,-0.29,2.47,-0.05,-4.1
2022-12-06 15:20:59.2230,-0.88,-0.54,0.041,2.83,-0.62,-0.72,2.48,0.51,-4.55
2022-12-06 15:20:59.2330,-0.792,-0.431,-0.006,1.35,-1.59,-0.15,2.52,1.0,-5.0
2022-12-06 15:20:59.2430,-0.708,-0.385,-0.083,0.91,-2.96,0.44,2.61,1.45,-5.34
2022-12-06 15:20:59.2530,-0.605,-0.399,-0.15,0.43,-3.67,1.3,2.69,1.85,-5.6
2022-12-06 15:20:59.2630,-0.488,-0.423,-0.188,-0.16,-3.83,2.01,2.75,2.13,-5.8
2022-12-06 15:20:59.2730,-0.334,-0.417,-0.218,-0.9,-3.94,2.46,2.79,2.23,-5.96
2022-12-06 15:20:59.2830,-0.189,-0.402,-0.263,-1.95,-4.32,2.87,2.83,2.12,-6.11
2022-12-06 15:20:59.2930,-0.072,-0.399,-0.342,-2.84,-4.74,3.49,2.89,1.71,-6.25
2022-12-06 15:20:59.3030,0.005,-0.435,-0.431,-3.4,-4.97,4.5,2.94,0.77,-6.31
2022-12-06 15:20:59.3130,0.086,-0.484,-0.433,-3.56,-4.78,5.56,2.81,-0.65,-6.25
2022-12-06 15:20:59.3230,0.207,-0.551,-0.443,-3.83,-4.46,5.74,2.66,-1.8,-6.02
2022-12-06 15:20:59.3330,0.259,-0.636,-0.537,-4.42,-3.87,6.31,2.51,-2.79,-5.48
2022-12-06 15:20:59.3430,0.102,-0.733,-0.422,-4.17,-3.08,7.4,2.19,-3.82,-4.7
2022-12-06 15:20:59.3530,-0.32,-0.874,-0.137,-1.8,-2.12,6.22,1.63,-4.51,-3.94
2022-12-06 15:20:59.3630,-0.958,-1.131,0.037,3.14,-0.63,3.58,1.05,-4.39,-3.37
2022-12-06 15:20:59.3730,-1.605,-1.418,-0.038,9.97,2.04,2.29,0.63,-3.2,-2.76
2022-12-06 15:20:59.3830,-2.049,-1.561,-0.228,16.46,4.77,3.32,0.36,-1.57,-2.03
2022-12-06 15:20:59.3930,-2.555,-1.386,-0.35,20.92,5.91,5.24,0.08,-0.23,-1.73
2022-12-06 15:20:59.4030,-3.006,-0.885,-0.376,26.21,3.68,6.24,0.01,0.84,-1.7
2022-12-06 15:20:59.4130,-2.411,-0.65,-0.512,30.13,-1.29,6.61,0.05,1.59,-1.03
2022-12-06 15:20:59.4230,-1.631,-0.823,-0.493,22.97,-2.91,7.97,-0.15,1.73,-0.47
2022-12-06 15:20:59.4330,-1.234,-0.792,-0.211,16.12,-1.2,7.33,0.06,1.13,0.49
2022-12-06 15:20:59.4430,-0.702,-0.953,0.403,12.02,-1.67,4.47,1.73,-0.34,1.71
2022-12-06 15:20:59.4530,-0.359,-2.009,1.587,6.69,0.67,-2.21,1.89,2.27,1.26
2022-12-06 15:20:59.4630,-0.516,-4.871,2.11,3.63,12.89,-13.68,-2.45,6.88,-0.03
2022-12-06 15:20:59.4730,0.438,-5.386,1.566,4.95,42.05,-17.89,-2.87,4.22,2.3
2022-12-06 15:20:59.4830,1.478,-1.022,0.007,-6.8,39.44,-10.67,-2.05,1.55,3.53
2022-12-06 15:20:59.4930,-0.296,1.558,0.596,-14.38,-4.52,2.57,-1.91,0.81,2.08
2022-12-06 15:20:59.5030,-1.263,1.151,-0.072,4.46,-25.56,-3.91,-1.43,1.0,1.29
2022-12-06 15:20:59.5130,-0.704,-0.046,-0.562,10.92,-19.27,4.14,-1.2,1.11,1.54
2022-12-06 15:20:59.5230,-0.631,-0.804,-0.445,5.16,-7.99,7.32,-1.03,0.91,1.4
2022-12-06 15:20:59.5330,-0.78,-1.549,-0.456,5.09,-0.72,6.24,-0.79,0.21,0.93
2022-12-06 15:20:59.5430,-0.449,-1.745,-0.323,6.05,6.34,6.23,-0.65,-0.56,0.84
2022-12-06 15:20:59.5530,0.077,-1.243,0.094,2.19,7.23,4.54,-0.86,-0.74,1.22
2022-12-06 15:20:59.5630,0.178,-0.77,0.348,-2.86,1.93,0.18,-0.94,-0.34,1.4
2022-12-06 15:20:59.5730,-0.177,-0.693,0.166,-3.24,-2.27,-1.75,-0.8,0.15,1.22
2022-12-06 15:20:59.5830,-0.479,-0.911,0.1,0.33,-2.57,0.11,-0.78,0.52,1.1
2022-12-06 15:20:59.5930,-0.497,-1.13,0.151,2.85,-0.22,0.34,-0.77,0.81,1.06
2022-12-06 15:20:59.6030,-0.437,-1.103,0.013,2.68,1.71,-0.08,-0.69,0.85,0.94
2022-12-06 15:20:59.6130,-0.317,-0.947,-0.119,1.98,1.17,1.32,-0.62,0.62,0.85
2022-12-06 15:20:59.6230,-0.134,-0.888,-0.163,0.6,-0.33,2.44,-0.57,0.29,0.84
2022-12-06 15:20:59.6330,-0.001,-0.94,-0.136,-1.28,-0.72,2.71,-0.51,0.08,0.85
2022-12-06 15:20:59.6430,-0.028,-0.995,-0.094,-2.51,-0.13,2.33,-0.44,0.03,0.85
2022-12-06 15:20:59.6530,-0.2,-1.004,-0.057,-2.13,0.36,1.9,-0.38,0.05,0.81
2022-12-06 15:20:59.6630,-0.464,-0.98,0.02,-0.35,0.44,1.47,-0.35,0.12,0.77
2022-12-06 15:20:59.6730,-0.599,-0.927,0.066,2.13,0.15,0.66,-0.3,0.3,0.67
2022-12-06 15:20:59.6830,-0.534,-0.907,0.094,3.13,-0.33,0.23,-0.28,0.39,0.58
2022-12-06 15:20:59.6930,-0.373,-0.977,0.13,2.26,-0.43,-0.1,-0.32,0.3,0.58
2022-12-06 15:20:59.7030,-0.204,-1.06,0.169,0.56,0.36,-0.48,-0.38,0.12,0.67
2022-12-06 15:20:59.7130,-0.107,-1.053,0.173,-1.1,1.1,-0.92,-0.41,-0.03,0.76
2022-12-06 15:20:59.7230,-0.08,-1.011,0.092,-2.01,0.96,-0.86,-0.42,-0.16,0.82
2022-12-06 15:20:59.7330,-0.09,-0.991,0.06,-2.29,0.59,-0.12,-0.42,-0.23,0.87
2022-12-06 15:20:59.7430,-0.104,-1.011,0.03,-2.25,0.46,0.15,-0.42,-0.22,0.91
2022-12-06 15:20:59.7530,-0.139,-1.032,0.053,-2.2,0.7,0.35,-0.41,-0.14,0.97
2022-12-06 15:20:59.7630,-0.207,-1.029,0.084,-1.89,0.93,0.08,-0.41,-0.1,1.02
2022-12-06 15:20:59.7730,-0.253,-1.001,0.124,-1.3,0.88,-0.3,-0.4,-0.04,1.05
2022-12-06 15:20:59.7830,-0.235,-1.013,0.13,-1.03,0.65,-0.67,-0.42,-0.03,1.1
2022-12-06 15:20:59.7930,-0.202,-1.067,0.162,-1.34,0.89,-0.79,-0.43,-0.06,1.18
2022-12-06 15:20:59.8030,-0.16,-1.106,0.18,-1.79,1.45,-1.14,-0.44,-0.17,1.27
2022-12-06 15:20:59.8130,-0.14,-1.137,0.215,-2.31,1.87,-1.35,-0.39,-0.24,1.38
2022-12-06 15:20:59.8230,-0.151,-1.214,0.312,-2.58,2.24,-1.76,-0.39,-0.24,1.38
2022-12-06 15:20:59.8330,-0.168,-1.233,0.346,-2.6,3.1,-2.8,-0.53,-0.43,1.64
2022-12-06 15:20:59.8430,-0.208,-1.131,0.287,-2.55,3.15,-2.96,-0.52,-0.41,1.76
2022-12-06 15:20:59.8530,-0.25,-1.087,0.268,-2.31,2.2,-2.46,-0.49,-0.17,1.82
2022-12-06 15:20:59.8630,-0.322,-1.137,0.193,-2.03,2.0,-2.27,-0.47,-0.03,1.88
2022-12-06 15:20:59.8730,-0.331,-1.203,0.204,-1.47,2.62,-1.58,-0.48,0.08,1.93
2022-12-06 15:20:59.8830,-0.169,-1.248,0.244,-1.74,3.36,-1.84,-0.52,0.1,2.06
2022-12-06 15:20:59.8930,0.036,-1.267,0.306,-3.67,3.85,-2.3,-0.55,0.03,2.25
2022-12-06 15:20:59.9030,0.192,-1.293,0.362,-5.8,4.18,-2.95,-0.58,-0.16,2.54
2022-12-06 15:20:59.9130,0.279,-1.313,0.422,-7.5,4.54,-3.56,-0.6,-0.37,2.83
2022-12-06 15:20:59.9230,0.262,-1.305,0.475,-8.45,4.9,-4.16,-0.6,-0.5,3.08
2022-12-06 15:20:59.9330,0.192,-1.254,0.498,-8.44,4.93,-4.67,-0.54,-0.52,3.27
2022-12-06 15:20:59.9430,0.094,-1.227,0.523,-7.96,4.62,-4.89,-0.41,-0.35,3.37
2022-12-06 15:20:59.9530,-0.015,-1.293,0.517,-7.23,4.65,-5.12,-0.25,-0.1,3.4
2022-12-06 15:20:59.9630,-0.074,-1.454,0.574,-6.42,5.65,-5.1,-0.11,0.25,3.34
2022-12-06 15:20:59.9730,-0.076,-1.667,0.626,-6.16,7.54,-5.73,-0.11,0.25,3.34
2022-12-06 15:20:59.9830,0.019,-1.795,0.654,-6.47,9.86,-6.28,-0.19,1.11,3.31
2022-12-06 15:20:59.9930,0.088,-1.82,0.523,-7.67,11.16,-6.53,-0.32,1.89,3.55
2022-12-06 15:21:00.0030,0.06,-1.931,0.315,-8.46,11.71,-5.22,-0.33,2.36,4.04
2022-12-06 15:21:00.0130,-0.12,-2.096,0.273,-8.29,13.22,-3.45,-0.45,2.31,4.13
2022-12-06 15:21:00.0230,-0.409,-2.239,0.291,-6.51,15.18,-3.52,-0.54,2.2,3.64
2022-12-06 15:21:00.0330,-0.492,-2.149,0.119,-3.92,16.74,-3.67,-0.53,2.06,2.95
2022-12-06 15:21:00.0430,-0.273,-1.834,-0.027,-3.64,15.71,-2.1,-0.52,2.29,2.38
2022-12-06 15:21:00.0530,0.014,-1.412,-0.233,-6.13,12.69,-0.98,-0.55,3.07,2.28
2022-12-06 15:21:00.0630,0.027,-1.132,-0.64,-8.85,8.69,1.07,-0.25,2.95,2.52
2022-12-06 15:21:00.0730,-0.441,-1.182,-0.757,-8.5,6.61,4.77,0.4,1.59,2.22
2022-12-06 15:21:00.0830,-0.981,-1.181,-0.343,-3.51,7.43,5.21,0.51,-0.3,1.28
2022-12-06 15:21:00.0930,-0.972,-0.992,0.153,1.32,7.27,0.65,0.11,-1.27,0.39
2022-12-06 15:21:00.1030,-0.432,-0.742,0.032,0.33,5.28,-3.55,0.11,-1.54,-0.11
2022-12-06 15:21:00.1130,-0.071,-0.537,-0.338,-5.14,2.84,-1.52,0.53,-1.63,-0.48
2022-12-06 15:21:00.1230,-0.061,-0.347,-0.393,-8.21,0.82,2.07,1.0,-1.83,-0.95
2022-12-06 15:21:00.1330,-0.203,-0.172,-0.229,-7.99,-1.16,2.39,1.34,-2.09,-1.52
2022-12-06 15:21:00.1430,-0.364,-0.067,-0.138,-6.48,-2.97,1.0,1.58,-2.12,-2.13
2022-12-06 15:21:00.1530,-0.551,-0.059,-0.109,-4.82,-4.09,0.49,1.76,-1.85,-2.81
2022-12-06 15:21:00.1630,-0.769,-0.086,-0.143,-2.79,-4.34,0.5,1.86,-1.36,-3.51
2022-12-06 15:21:00.1730,-0.953,-0.122,-0.156,-0.48,-4.39,1.09,1.9,-0.92,-4.17
2022-12-06 15:21:00.1830,-1.052,-0.2,-0.133,1.48,-4.33,1.31,1.84,-0.56,-4.72
2022-12-06 15:21:00.1930,-1.052,-0.261,-0.132,2.6,-3.94,1.25,1.69,-0.3,-5.15
2022-12-06 15:21:00.2030,-0.943,-0.283,-0.138,2.81,-3.79,1.37,1.58,-0.05,-5.63
2022-12-06 15:21:00.2130,-0.722,-0.232,-0.205,1.96,-4.03,1.58,1.58,-0.05,-5.63
2022-12-06 15:21:00.2230,-0.491,-0.134,-0.268,0.15,-5.07,2.4,1.68,0.4,-6.44
2022-12-06 15:21:00.2330,-0.282,-0.088,-0.271,-1.61,-6.41,3.03,1.81,0.47,-6.7
2022-12-06 15:21:00.2430,-0.118,-0.099,-0.309,-3.1,-7.18,3.17,1.81,0.47,-6.7
2022-12-06 15:21:00.2530,0.013,-0.151,-0.387,-4.08,-7.36,3.78,2.25,0.11,-7.0
2022-12-06 15:21:00.2630,0.147,-0.225,-0.381,-4.76,-7.15,4.69,2.4,-0.24,-7.01
2022-12-06 15:21:00.2730,0.253,-0.365,-0.335,-5.44,-6.63,4.73,2.48,-0.72,-6.99
2022-12-06 15:21:00.2830,0.261,-0.587,-0.337,-5.77,-5.38,4.6,2.56,-1.48,-7.01
2022-12-06 15:21:00.2930,0.15,-0.87,-0.252,-5.0,-3.27,4.89,2.46,-2.39,-6.96
2022-12-06 15:21:00.3030,-0.07,-1.191,-0.12,-3.1,-0.55,4.16,2.46,-2.39,-6.96
2022-12-06 15:21:00.3130,-0.388,-1.444,-0.12,-0.08,2.55,3.23,1.78,-3.5,-6.49
2022-12-06 15:21:00.3230,-0.692,-1.565,-0.197,3.77,4.85,3.56,1.44,-3.68,-6.01
2022-12-06 15:21:00.3330,-0.963,-1.628,-0.354,7.35,5.95,4.57,1.16,-3.86,-5.38
2022-12-06 15:21:00.3430,-1.181,-1.733,-0.252,10.57,6.6,6.09,0.69,-4.02,-4.61
2022-12-06 15:21:00.3530,-1.316,-1.89,-0.032,13.14,7.83,4.72,0.08,-3.9,-3.76
2022-12-06 15:21:00.3630,-1.519,-1.857,-0.021,14.86,9.32,2.67,-0.41,-3.5,-3.0
2022-12-06 15:21:00.3730,-1.902,-1.592,-0.202,17.43,8.73,2.75,-0.64,-3.26,-2.4
2022-12-06 15:21:00.3830,-2.154,-1.193,-0.209,21.61,5.92,4.4,-0.85,-2.83,-1.64
2022-12-06 15:21:00.3930,-1.798,-0.855,-0.249,23.61,2.01,4.06,-0.77,-1.79,-0.55
2022-12-06 15:21:00.4030,-1.544,-0.796,-0.35,19.84,-1.07,4.66,-0.73,-0.78,0.68
2022-12-06 15:21:00.4130,-1.494,-0.892,-0.158,17.67,-1.33,5.22,-0.87,0.15,1.82
2022-12-06 15:21:00.4230,-1.646,-0.901,0.005,17.16,-0.51,3.09,-0.92,0.97,2.6
2022-12-06 15:21:00.4330,-1.862,-0.925,0.012,18.66,-0.61,1.65,-0.73,1.54,2.94
2022-12-06 15:21:00.4430,-1.705,-0.888,0.393,20.29,-0.18,1.55,-0.29,1.89,2.56
2022-12-06 15:21:00.4530,-0.913,-0.896,1.034,17.71,-1.23,-2.9,0.86,-0.19,0.57
2022-12-06 15:21:00.4630,-0.123,-2.479,2.191,9.49,0.35,-9.52,-0.56,5.52,-5.05
2022-12-06 15:21:00.4730,1.785,-3.566,0.813,1.98,17.42,-20.08,0.78,9.83,-2.17
2022-12-06 15:21:00.4840,4.018,-2.366,0.405,-19.19,24.93,-2.77,0.32,5.73,4.17
2022-12-06 15:21:00.4940,1.184,-1.078,2.149,-37.55,11.86,-4.48,-1.02,4.87,4.94
2022-12-06 15:21:00.5030,-1.88,-0.848,1.217,-5.56,0.17,-18.83,-1.59,3.82,2.9
2022-12-06 15:21:00.5130,-2.291,-1.281,0.368,20.5,-0.93,-8.38,-2.12,2.06,1.51
2022-12-06 15:21:00.5230,-1.598,-1.362,-0.064,22.5,3.45,-1.13,-2.29,1.36,1.04
2022-12-06 15:21:00.5330,-0.28,-0.896,-0.565,14.28,3.23,2.81,-1.68,1.36,1.02
2022-12-06 15:21:00.5430,0.489,-0.546,-1.051,1.61,-1.42,7.81,-0.91,0.84,1.38
2022-12-06 15:21:00.5530,0.862,-0.434,-0.804,-5.57,-4.69,11.87,-0.84,-0.54,1.84
2022-12-06 15:21:00.5630,0.638,-0.74,-0.313,-8.71,-5.26,8.56,-1.03,-2.12,2.03
2022-12-06 15:21:00.5730,0.249,-1.063,-0.058,-6.17,-2.0,3.89,-1.12,-3.28,1.98
2022-12-06 15:21:00.5830,-0.109,-1.173,0.142,-2.56,0.96,1.47,-1.08,-3.57,1.93
2022-12-06 15:21:00.5930,-0.448,-1.096,0.227,0.81,1.75,-0.51,-0.89,-2.97,1.87
2022-12-06 15:21:00.6030,-0.794,-0.981,0.168,3.96,0.89,-1.2,-0.68,-1.71,1.62
2022-12-06 15:21:00.6130,-1.067,-0.862,0.069,7.22,-0.24,-0.57,-0.44,-0.32,1.18
2022-12-06 15:21:00.6230,-1.084,-0.774,0.068,9.56,-1.4,0.33,-0.29,0.73,0.74
2022-12-06 15:21:00.6330,-0.823,-0.808,0.195,9.28,-2.16,0.1,-0.26,1.39,0.45
2022-12-06 15:21:00.6430,-0.467,-0.953,0.204,6.43,-1.63,-1.19,-0.3,1.53,0.33
2022-12-06 15:21:00.6530,-0.144,-1.085,0.082,2.91,-0.16,-1.09,-0.35,1.22,0.34
2022-12-06 15:21:00.6630,0.175,-1.125,-0.088,-0.28,1.05,0.1,-0.3,0.72,0.49
2022-12-06 15:21:00.6730,0.443,-1.076,-0.235,-3.44,1.33,1.83,-0.29,0.05,0.76
2022-12-06 15:21:00.6830,0.565,-0.96,-0.156,-6.04,0.74,2.99,-0.33,-0.59,1.01
2022-12-06 15:21:00.6930,0.407,-0.917,-0.075,-7.04,-0.37,2.05,-0.35,-1.0,1.14
2022-12-06 15:21:00.7030,0.085,-0.955,-0.003,-5.26,-0.64,1.3,-0.34,-1.08,1.21
2022-12-06 15:21:00.7130,-0.196,-0.991,0.075,-2.2,-0.22,0.54,-0.3,-0.83,1.2
2022-12-06 15:21:00.7230,-0.419,-1.002,0.107,0.38,0.13,-0.19,-0.27,-0.47,1.05
2022-12-06 15:21:00.7330,-0.483,-0.975,0.137,2.36,0.21,-0.48,-0.27,-0.12,0.91
2022-12-06 15:21:00.7430,-0.306,-0.971,0.131,2.6,-0.06,-0.8,-0.3,0.07,0.88
2022-12-06 15:21:00.7530,-0.064,-1.041,0.117,0.59,0.02,-0.72,-0.36,0.08,0.92
2022-12-06 15:21:00.7630,0.173,-1.1,0.132,-1.88,0.76,-0.66,-0.43,-0.11,1.09
2022-12-06 15:21:00.7730,0.313,-1.106,0.149,-4.24,1.3,-0.86,-0.51,-0.35,1.32
2022-12-06 15:21:00.7830,0.36,-1.088,0.125,-5.6,1.35,-1.04,-0.57,-0.55,1.54
2022-12-06 15:21:00.7930,0.27,-1.056,0.064,-6.09,1.16,-0.78,-0.58,-0.7,1.74
2022-12-06 15:21:00.8030,0.076,-1.047,0.06,-5.18,0.92,-0.23,-0.59,-0.8,1.84
2022-12-06 15:21:00.8130,-0.092,-1.061,0.063,-3.41,0.91,-0.29,-0.6,-0.8,1.87
2022-12-06 15:21:00.8230,-0.185,-1.066,0.065,-2.02,1.12,-0.35,-0.54,-0.71,1.91
2022-12-06 15:21:00.8330,-0.225,-1.047,0.137,-1.37,1.18,-0.41,-0.53,-0.52,1.95
2022-12-06 15:21:00.8430,-0.237,-1.073,0.195,-1.2,1.08,-1.28,-0.55,-0.28,1.98
2022-12-06 15:21:00.8530,-0.214,-1.062,0.132,-1.31,1.43,-1.66,-0.51,-0.06,2.09
2022-12-06 15:21:00.8630,-0.198,-1.022,0.133,-1.75,1.31,-1.14,-0.48,0.09,2.14
2022-12-06 15:21:00.8730,-0.193,-1.091,0.167,-2.06,1.07,-1.25,-0.49,0.2,2.24
2022-12-06 15:21:00.8830,-0.159,-1.186,0.179,-2.34,1.98,-1.63,-0.53,0.19,2.38
2022-12-06 15:21:00.8930,-0.132,-1.226,0.224,-2.9,2.94,-1.82,-0.53,0.1,2.53
2022-12-06 15:21:00.9030,-0.103,-1.245,0.295,-3.37,3.4,-2.35,-0.55,0.01,2.67
2022-12-06 15:21:00.9130,-0.065,-1.273,0.331,-3.91,3.72,-3.08,-0.55,-0.02,2.85
2022-12-06 15:21:00.9230,-0.065,-1.295,0.351,-4.49,4.13,-3.45,-0.54,-0.06,3.02
2022-12-06 15:21:00.9330,-0.083,-1.335,0.369,-4.7,4.52,-3.67,-0.51,-0.08,3.15
2022-12-06 15:21:00.9430,-0.064,-1.351,0.404,-4.79,5.1,-3.9,-0.51,-0.12,3.28
2022-12-06 15:21:00.9530,-0.011,-1.341,0.44,-5.3,5.38,-4.29,-0.51,-0.19,3.38
2022-12-06 15:21:00.9630,0.102,-1.326,0.469,-6.13,5.49,-4.65,-0.46,-0.19,3.52
2022-12-06 15:21:00.9730,0.2,-1.316,0.456,-7.57,5.55,-4.95,-0.3,-0.1,3.7
2022-12-06 15:21:00.9830,0.133,-1.437,0.488,-8.65,5.76,-4.76,-0.28,-0.14,3.72
2022-12-06 15:21:00.9930,0.057,-1.64,0.713,-8.08,7.43,-5.35,-0.4,-0.33,3.63
2022-12-06 15:21:01.0030,0.199,-1.693,0.776,-7.81,9.56,-7.57,-0.54,-0.34,3.76
2022-12-06 15:21:01.0130,0.317,-1.666,0.632,-9.62,10.2,-7.9,-0.71,0.11,4.22
2022-12-06 15:21:01.0230,0.196,-1.707,0.356,-10.8,10.24,-6.34,-0.95,0.58,4.66
2022-12-06 15:21:01.0330,-0.15,-1.962,0.189,-9.55,11.25,-3.71,-1.0,0.71,4.51
2022-12-06 15:21:01.0430,-0.411,-2.16,0.007,-6.31,14.26,-2.35,-0.7,0.82,3.99
2022-12-06 15:21:01.0540,-0.474,-2.063,-0.145,-4.21,16.21,-0.54,-0.49,0.95,3.53
2022-12-06 15:21:01.0630,-0.449,-1.744,-0.091,-3.94,15.22,0.61,-0.32,1.05,3.16
2022-12-06 15:21:01.0730,-0.44,-1.38,-0.096,-4.31,12.22,-0.18,-0.17,1.55,2.85
2022-12-06 15:21:01.0830,-0.471,-1.044,-0.327,-4.5,8.89,0.04,-0.28,2.11,2.58
2022-12-06 15:21:01.0930,-0.706,-0.922,-0.535,-4.09,5.98,2.23,-0.02,1.89,2.07
2022-12-06 15:21:01.1030,-1.02,-0.801,-0.408,-1.63,5.19,3.89,0.3,0.6,1.26
2022-12-06 15:21:01.1130,-1.221,-0.562,0.068,1.39,3.86,2.04,0.05,-0.93,0.43
2022-12-06 15:21:01.1230,-1.058,-0.52,0.264,3.01,1.64,-2.58,-0.38,-1.6,-0.13
2022-12-06 15:21:01.1330,-0.679,-0.569,-0.096,0.92,1.53,-3.65,-0.42,-1.5,-0.62
2022-12-06 15:21:01.1430,-0.548,-0.383,-0.408,-2.69,1.72,0.35,-0.09,-1.4,-1.26
2022-12-06 15:21:01.1530,-0.641,-0.154,-0.332,-3.54,-0.41,3.11,0.22,-1.51,-2.03
2022-12-06 15:21:01.1630,-0.697,-0.002,-0.102,-2.48,-2.79,2.1,0.38,-1.62,-2.76
2022-12-06 15:21:01.1730,-0.681,0.064,-0.01,-1.95,-4.41,0.11,0.47,-1.52,-3.37
2022-12-06 15:21:01.1830,-0.647,0.099,0.01,-2.0,-5.31,-0.5,0.56,-1.2,-3.86
2022-12-06 15:21:01.1930,-0.621,0.054,-0.009,-2.16,-5.92,-0.52,0.72,-0.79,-4.28
2022-12-06 15:21:01.2030,-0.636,-0.001,-0.03,-2.15,-5.77,-0.18,0.82,-0.63,-4.67
2022-12-06 15:21:01.2130,-0.659,-0.04,0.042,-1.71,-5.66,0.01,0.8,-0.61,-5.05
2022-12-06 15:21:01.2230,-0.639,-0.119,0.074,-1.21,-5.64,-0.63,0.69,-0.59,-5.45
2022-12-06 15:21:01.2330,-0.594,-0.161,0.039,-1.12,-5.27,-0.76,0.63,-0.47,-5.87
2022-12-06 15:21:01.2430,-0.515,-0.12,-0.069,-1.18,-5.38,-0.25,0.71,-0.41,-6.21
2022-12-06 15:21:01.2530,-0.419,-0.086,-0.057,-1.55,-6.26,0.87,0.85,-0.47,-6.47
2022-12-06 15:21:01.2630,-0.297,-0.093,-0.043,-2.0,-6.94,0.68,1.14,-0.47,-6.58
2022-12-06 15:21:01.2730,-0.112,-0.1,-0.174,-2.75,-7.21,0.86,1.51,-0.36,-6.57
2022-12-06 15:21:01.2830,0.064,-0.113,-0.139,-4.07,-7.5,2.29,1.51,-0.36,-6.57
2022-12-06 15:21:01.2930,0.102,-0.161,0.003,-5.13,-7.62,1.84,1.89,-1.28,-6.37
2022-12-06 15:21:01.3030,-0.054,-0.306,0.127,-4.7,-7.33,0.7,1.89,-2.11,-6.3
2022-12-06 15:21:01.3130,-0.283,-0.545,0.201,-2.37,-5.95,-0.26,1.83,-2.39,-6.36
2022-12-06 15:21:01.3230,-0.462,-0.781,0.214,0.47,-3.72,-0.62,1.73,-2.21,-6.44
2022-12-06 15:21:01.3330,-0.651,-0.953,0.247,2.82,-1.59,-0.57,1.59,-1.82,-6.33
2022-12-06 15:21:01.3430,-0.942,-1.138,0.179,5.38,-0.03,-0.65,1.46,-1.3,-5.97
2022-12-06 15:21:01.3530,-1.34,-1.356,0.018,9.0,1.83,0.31,1.34,-0.62,-5.51
2022-12-06 15:21:01.3630,-1.551,-1.455,-0.183,13.42,3.91,2.08,1.27,0.01,-5.05
2022-12-06 15:21:01.3730,-1.611,-1.493,-0.481,15.59,4.76,4.26,1.26,0.3,-4.58
2022-12-06 15:21:01.3830,-1.614,-1.44,-0.661,16.62,5.15,7.36,1.08,0.21,-4.05
2022-12-06 15:21:01.3930,-1.404,-1.28,-0.537,16.82,4.5,8.83,0.74,-0.23,-3.39
2022-12-06 15:21:01.4040,-1.005,-1.186,-0.396,14.76,2.97,7.48,0.44,-0.71,-2.54
2022-12-06 15:21:01.4130,-0.715,-1.186,-0.514,11.09,2.25,6.34,0.22,-1.35,-1.51
2022-12-06 15:21:01.4240,-0.504,-1.232,-0.418,8.57,2.35,7.64,-0.36,-2.02,-0.44
2022-12-06 15:21:01.4330,-0.49,-1.308,-0.149,6.69,2.86,6.07,-0.86,-2.24,0.49
2022-12-06 15:21:01.4430,-0.669,-1.259,-0.101,6.88,3.5,3.57,-1.15,-2.31,1.26
2022-12-06 15:21:01.4540,-0.821,-1.11,0.079,8.66,2.77,2.99,-0.91,-2.18,2.01
2022-12-06 15:21:01.4630,-0.762,-1.332,0.587,9.81,1.35,0.79,0.36,-1.96,2.58
2022-12-06 15:21:01.4730,-0.53,-2.078,1.467,8.69,4.36,-4.62,1.55,-0.09,1.94
2022-12-06 15:21:01.4830,-0.483,-2.712,1.847,6.42,11.79,-13.39,0.36,6.32,0.85
2022-12-06 15:21:01.4940,0.104,-3.106,0.915,5.33,17.77,-15.12,-0.69,8.4,2.65
2022-12-06 15:21:01.5040,-0.273,-2.426,1.118,-0.78,20.98,-6.04,-1.72,5.83,4.06
2022-12-06 15:21:01.5130,-1.376,-0.535,1.18,4.1,12.12,-9.79,-1.64,4.74,3.02
2022-12-06 15:21:01.5230,-1.709,0.206,-0.116,14.26,-6.17,-8.31,-1.38,5.04,1.15
2022-12-06 15:21:01.5330,-1.011,-0.125,-0.49,15.92,-11.58,4.05,-1.36,4.62,0.43
2022-12-06 15:21:01.5430,-0.068,-0.516,-0.443,8.13,-7.89,6.35,-1.38,3.59,0.73
2022-12-06 15:21:01.5530,0.475,-0.896,-0.708,-0.93,-4.16,5.98,-0.95,1.98,1.28
2022-12-06 15:21:01.5630,0.763,-1.149,-0.738,-5.95,-0.49,8.68,-0.7,-0.12,1.65
2022-12-06 15:21:01.5730,0.859,-1.312,-0.189,-8.72,1.82,8.12,-1.09,-1.8,1.87
2022-12-06 15:21:01.5830,0.73,-1.326,0.301,-9.56,3.36,2.28,-1.36,-2.7,2.29
2022-12-06 15:21:01.5930,0.278,-1.015,0.34,-8.16,3.12,-2.08,-1.12,-2.97,2.63
2022-12-06 15:21:01.6030,-0.389,-0.699,0.276,-3.54,-0.15,-2.15,-0.9,-2.36,2.54
2022-12-06 15:21:01.6130,-0.992,-0.695,0.337,2.84,-2.91,-1.74,-0.93,-1.2,2.2
2022-12-06 15:21:01.6230,-1.402,-0.809,0.18,8.36,-2.6,-2.35,-0.82,0.03,1.67
2022-12-06 15:21:01.6330,-1.544,-0.873,-0.146,11.96,-1.51,-0.5,-0.82,0.03,1.67
2022-12-06 15:21:01.6430,-1.298,-0.93,-0.21,12.84,-0.9,2.5,-0.43,1.64,0.45
2022-12-06 15:21:01.6530,-0.777,-0.975,-0.073,9.88,-0.33,2.63,-0.39,1.71,0.25
2022-12-06 15:21:01.6630,-0.306,-0.979,-0.056,4.66,0.07,1.24,-0.31,1.39,0.33
2022-12-06 15:21:01.6730,0.028,-0.992,-0.06,0.15,0.1,1.17,-0.3,0.76,0.52
2022-12-06 15:21:01.6830,0.201,-1.005,-0.05,-3.0,0.25,1.07,-0.32,0.05,0.68
2022-12-06 15:21:01.6930,0.211,-1.003,-0.058,-4.54,0.38,1.03,-0.32,0.05,0.68
2022-12-06 15:21:01.7030,0.136,-1.0,0.001,-4.59,0.37,1.0,-0.36,-0.9,1.04
2022-12-06 15:21:01.7140,-0.073,-1.016,0.02,-3.82,0.38,0.41,-0.39,-1.08,1.12
2022-12-06 15:21:01.7230,-0.302,-1.03,0.019,-1.73,0.59,0.27,-0.4,-1.05,1.06
2022-12-06 15:21:01.7330,-0.402,-0.995,0.013,0.31,0.7,0.28,-0.38,-0.82,0.96
2022-12-06 15:21:01.7440,-0.403,-0.966,0.027,1.04,0.35,0.33,-0.38,-0.82,0.96
2022-12-06 15:21:01.7540,-0.386,-0.968,0.05,0.91,0.13,0.12,-0.35,-0.48,0.9
2022-12-06 15:21:01.7640,-0.366,-1.006,0.059,0.69,0.22,-0.1,-0.36,-0.08,0.79
2022-12-06 15:21:01.7730,-0.276,-1.04,0.067,0.36,0.63,-0.23,-0.38,-0.07,0.79
2022-12-06 15:21:01.7840,-0.176,-1.063,0.051,-0.67,0.97,-0.3,-0.4,-0.14,0.83
2022-12-06 15:21:01.7940,-0.123,-1.094,0.061,-1.68,1.23,-0.18,-0.44,-0.35,0.9
2022-12-06 15:21:01.8030,-0.086,-1.075,0.067,-2.22,1.54,-0.35,-0.44,-0.35,0.9
2022-12-06 15:21:01.8140,-0.052,-1.075,0.101,-2.7,1.33,-0.41,-0.49,-0.79,1.14
2022-12-06 15:21:01.8240,-0.046,-1.073,0.15,-3.11,1.44,-0.82,-0.5,-0.86,1.29
2022-12-06 15:21:01.8330,-0.082,-1.067,0.174,-3.24,1.41,-1.3,-0.5,-0.86,1.29
2022-12-06 15:21:01.8440,-0.137,-1.073,0.15,-2.96,1.45,-1.49,-0.53,-0.67,1.5
2022-12-06 15:21:01.8540,-0.17,-1.039,0.134,-2.58,1.52,-1.25,-0.49,-0.52,1.62
2022-12-06 15:21:01.8640,-0.226,-1.028,0.159,-2.41,1.24,-1.17,-0.45,-0.4,1.7
2022-12-06 15:21:01.8740,-0.272,-1.065,0.186,-1.96,1.27,-1.46,-0.45,-0.28,1.76
2022-12-06 15:21:01.8840,-0.226,-1.081,0.232,-1.75,1.72,-1.77,-0.44,-0.12,1.89
2022-12-06 15:21:01.8930,-0.154,-1.063,0.208,-2.47,1.91,-2.21,-0.42,0.03,2.07
2022-12-06 15:21:01.9040,-0.111,-1.059,0.2,-3.32,1.82,-1.97,-0.39,0.1,2.24
2022-12-06 15:21:01.9140,-0.054,-1.136,0.223,-3.93,1.96,-1.97,-0.4,0.1,2.42
2022-12-06 15:21:01.9240,0.011,-1.242,0.277,-4.71,2.94,-2.28,-0.43,0.01,2.64
2022-12-06 15:21:01.9340,0.05,-1.268,0.318,-5.56,4.06,-2.87,-0.42,-0.1,2.88
2022-12-06 15:21:01.9440,0.062,-1.239,0.363,-6.14,4.37,-3.25,-0.4,-0.19,3.09
2022-12-06 15:21:01.9540,0.062,-1.257,0.423,-6.48,4.26,-3.77,-0.38,-0.22,3.28
2022-12-06 15:21:01.9640,0.078,-1.348,0.498,-6.74,4.74,-4.36,-0.4,-0.26,3.46
2022-12-06 15:21:01.9740,0.104,-1.426,0.554,-7.18,5.9,-5.14,-0.35,-0.29,3.65
2022-12-06 15:21:01.9840,0.111,-1.422,0.542,-7.71,6.8,-5.62,-0.19,-0.27,3.84
2022-12-06 15:21:01.9940,0.036,-1.517,0.572,-7.97,7.0,-5.43,-0.14,-0.3,3.88
2022-12-06 15:21:02.0040,-0.028,-1.769,0.744,-7.42,8.47,-5.93,-0.22,-0.32,3.77
2022-12-06 15:21:02.0140,0.07,-1.893,0.772,-7.2,11.2,-7.61,-0.43,-0.02,3.7
2022-12-06 15:21:02.0240,0.17,-1.96,0.527,-8.52,12.52,-7.58,-0.6,0.59,3.83
2022-12-06 15:21:02.0340,0.223,-2.024,0.172,-9.65,13.49,-5.01,-0.75,1.24,4.29
2022-12-06 15:21:02.0440,0.109,-2.123,-0.062,-10.34,14.48,-1.69,-0.7,1.45,4.63
2022-12-06 15:21:02.0540,-0.346,-2.024,-0.197,-9.01,15.8,0.19,-0.12,1.47,4.36
2022-12-06 15:21:02.0640,-0.622,-1.827,-0.176,-4.65,14.81,1.46,0.17,1.25,3.67
2022-12-06 15:21:02.0740,-0.684,-1.691,0.21,-2.49,13.36,0.53,0.11,1.26,2.63
2022-12-06 15:21:02.0840,-0.496,-1.373,0.185,-2.16,12.11,-3.26,-0.19,2.37,1.81
2022-12-06 15:21:02.0940,-0.288,-1.014,-0.508,-4.39,8.89,-2.44,-0.3,3.83,1.81
2022-12-06 15:21:02.1040,-0.69,-0.99,-1.181,-5.99,5.87,4.62,0.53,3.27,1.52
2022-12-06 15:21:02.1140,-1.387,-0.805,-0.57,-1.19,5.94,9.93,1.0,0.75,0.81
2022-12-06 15:21:02.1240,-1.497,-0.39,0.436,5.17,3.59,2.39,0.24,-1.01,0.2
2022-12-06 15:21:02.1340,-1.198,-0.608,0.291,5.56,0.01,-6.4,-0.42,-1.17,-0.15
2022-12-06 15:21:02.1440,-0.782,-0.698,-0.275,2.28,2.63,-3.66,-0.38,-0.83,-0.67
2022-12-06 15:21:02.1540,-0.538,-0.436,-0.512,-1.67,2.79,1.73,-0.0,-0.64,-1.35
2022-12-06 15:21:02.1640,-0.452,-0.226,-0.442,-3.78,0.05,3.63,0.37,-0.67,-2.11
2022-12-06 15:21:02.1740,-0.446,-0.041,-0.329,-4.42,-2.16,2.86,0.61,-0.87,-2.77
2022-12-06 15:21:02.1840,-0.473,0.108,-0.222,-4.28,-4.19,1.85,0.74,-0.96,-3.36
2022-12-06 15:21:02.1940,-0.453,0.193,-0.173,-3.9,-5.92,0.96,0.84,-0.94,-3.84
2022-12-06 15:21:02.2040,-0.458,0.182,-0.146,-3.95,-6.97,0.67,0.9,-1.04,-4.21
2022-12-06 15:21:02.2140,-0.509,0.124,-0.118,-3.6,-7.12,0.53,0.95,-1.28,-4.54
2022-12-06 15:21:02.2240,-0.53,0.078,-0.092,-2.88,-6.93,0.43,0.97,-1.56,-4.91
2022-12-06 15:21:02.2340,-0.532,0.02,-0.059,-2.4,-6.87,0.35,0.97,-1.77,-5.33
2022-12-06 15:21:02.2440,-0.485,-0.036,-0.058,-2.09,-6.69,0.23,0.98,-1.87,-5.74
2022-12-06 15:21:02.2540,-0.376,-0.03,-0.077,-2.24,-6.61,0.47,1.02,-1.9,-6.08
2022-12-06 15:21:02.2640,-0.301,-0.009,-0.082,-2.9,-7.15,0.84,1.08,-1.87,-6.37
2022-12-06 15:21:02.2740,-0.24,-0.046,-0.071,-3.08,-7.68,1.08,1.16,-1.79,-6.59
2022-12-06 15:21:02.2840,-0.186,-0.104,-0.041,-3.15,-7.66,1.14,1.22,-1.65,-6.76
2022-12-06 15:21:02.2940,-0.189,-0.206,-0.008,-3.06,-7.39,1.01,1.28,-1.45,-6.89
2022-12-06 15:21:02.3040,-0.243,-0.332,-0.004,-2.34,-6.64,0.9,1.35,-1.21,-7.01
2022-12-06 15:21:02.3140,-0.301,-0.442,-0.006,-1.14,-5.67,1.04,1.44,-1.03,-7.14
2022-12-06 15:21:02.3240,-0.368,-0.583,-0.04,0.09,-4.82,1.25,1.6,-0.99,-7.29
2022-12-06 15:21:02.3340,-0.439,-0.81,-0.026,1.46,-3.51,1.79,1.71,-1.18,-7.38
2022-12-06 15:21:02.3440,-0.494,-1.048,0.115,2.87,-1.33,1.66,1.69,-1.45,-7.34
2022-12-06 15:21:02.3540,-0.579,-1.271,0.216,4.13,0.95,0.4,1.65,-1.62,-7.11
2022-12-06 15:21:02.3640,-0.71,-1.396,0.158,5.74,3.04,-0.26,1.71,-1.77,-6.7
2022-12-06 15:21:02.3740,-0.842,-1.481,-0.049,7.75,4.22,0.68,1.9,-1.97,-6.08
2022-12-06 15:21:02.3840,-0.884,-1.601,-0.17,9.57,5.16,2.95,1.91,-2.14,-5.23
2022-12-06 15:21:02.3940,-0.898,-1.746,-0.092,10.4,6.52,3.98,1.67,-1.87,-4.49
2022-12-06 15:21:02.4040,-1.186,-1.745,0.005,11.17,8.01,3.26,1.3,-1.3,-4.09
2022-12-06 15:21:02.4140,-1.583,-1.595,0.184,14.76,7.86,2.29,0.77,-0.48,-3.66
2022-12-06 15:21:02.4240,-1.792,-1.561,0.149,18.85,6.52,0.68,0.07,0.06,-2.88
2022-12-06 15:21:02.4340,-1.574,-1.575,-0.02,20.81,6.43,1.32,-0.57,0.32,-1.76
2022-12-06 15:21:02.4440,-0.738,-1.401,-0.213,17.98,6.5,2.98,-0.82,0.29,-0.09
2022-12-06 15:21:02.4540,-0.085,-1.159,-0.381,9.4,4.52,4.82,-0.88,0.46,1.86
2022-12-06 15:21:02.4640,-0.278,-0.988,-0.277,3.7,2.1,6.22,-1.03,0.58,3.39
2022-12-06 15:21:02.4740,-0.782,-1.118,-0.042,6.15,0.6,4.81,-1.09,0.57,3.94
2022-12-06 15:21:02.4840,-0.817,-1.122,0.233,10.4,1.75,2.24,-0.55,0.54,3.66
2022-12-06 15:21:02.4940,-0.41,-2.089,0.982,9.75,2.1,-0.4,0.24,-1.31,1.19
2022-12-06 15:21:02.5040,0.337,-3.456,1.699,5.51,13.18,-8.85,-0.02,4.19,-1.25
2022-12-06 15:21:02.5140,2.218,-2.703,0.842,-3.11,24.99,-13.89,0.29,7.6,2.13
2022-12-06 15:21:02.5240,2.233,-1.488,1.487,-22.31,15.23,-5.29,-1.1,5.02,5.61
2022-12-06 15:21:02.5340,-1.108,-0.83,1.535,-17.72,4.3,-13.43,-1.73,3.94,4.74
2022-12-06 15:21:02.5440,-2.704,-0.199,0.31,14.81,-2.28,-11.37,-1.59,3.13,1.87
2022-12-06 15:21:02.5540,-1.989,-0.087,-0.138,26.94,-8.08,0.14,-1.48,3.22,0.28
2022-12-06 15:21:02.5640,-0.292,-0.294,-0.353,17.54,-8.58,3.58,-1.4,3.66,0.37
2022-12-06 15:21:02.5740,0.418,-0.601,-0.684,1.36,-6.44,5.71,-1.19,3.83,1.29
2022-12-06 15:21:02.5840,0.46,-1.135,-1.029,-4.59,-3.21,8.95,-0.49,2.11,2.24
2022-12-06 15:21:02.5940,0.278,-1.431,-0.607,-4.81,2.08,11.9,-0.81,0.04,2.19
2022-12-06 15:21:02.6040,0.144,-1.509,0.182,-3.13,4.54,6.46,-1.39,-1.64,1.99
2022-12-06 15:21:02.6140,0.206,-1.222,0.284,-2.25,5.07,-0.76,-1.58,-2.65,2.19
2022-12-06 15:21:02.6240,0.129,-0.749,0.108,-3.07,1.69,-1.23,-1.35,-2.68,2.39
2022-12-06 15:21:02.6340,-0.163,-0.651,0.021,-2.21,-2.66,0.43,-1.04,-2.06,2.36
2022-12-06 15:21:02.6440,-0.543,-0.786,0.109,0.65,-3.15,0.95,-0.91,-1.0,2.14
2022-12-06 15:21:02.6540,-0.906,-0.906,0.155,4.19,-1.71,-0.04,-0.79,0.07,1.8
2022-12-06 15:21:02.6640,-1.16,-0.869,0.182,7.54,-0.67,-0.49,-0.65,0.85,1.41
2022-12-06 15:21:02.6740,-1.167,-0.826,0.115,9.62,-1.15,-0.81,-0.57,1.27,0.96
2022-12-06 15:21:02.6840,-0.995,-0.891,-0.033,9.32,-1.43,-0.05,-0.55,1.43,0.55
2022-12-06 15:21:02.6940,-0.664,-0.961,-0.1,7.37,-0.72,1.27,-0.47,1.28,0.38
2022-12-06 15:21:02.7040,-0.278,-0.972,-0.131,3.93,-0.08,1.77,-0.34,0.91,0.45
2022-12-06 15:21:02.7140,0.023,-0.964,-0.154,0.13,-0.02,2.03,-0.26,0.42,0.63
2022-12-06 15:21:02.7240,0.135,-0.998,-0.082,-2.69,-0.07,2.15,-0.26,0.42,0.63
2022-12-06 15:21:02.7340,0.126,-1.038,0.04,-3.65,0.32,1.29,-0.38,-0.56,0.92
2022-12-06 15:21:02.7440,0.017,-1.077,0.109,-3.54,0.73,0.1,-0.44,-0.77,1.03
2022-12-06 15:21:02.7540,-0.16,-1.086,0.104,-2.44,1.12,-0.5,-0.45,-0.74,1.06
2022-12-06 15:21:02.7640,-0.297,-1.037,0.111,-0.78,1.17,-0.43,-0.43,-0.52,1.0
2022-12-06 15:21:02.7740,-0.347,-0.994,0.085,0.36,0.65,-0.54,-0.43,-0.52,1.0
2022-12-06 15:21:02.7840,-0.338,-1.007,0.112,0.69,0.34,-0.3,-0.43,-0.24,0.91
2022-12-06 15:21:02.7940,-0.286,-1.05,0.139,0.45,0.52,-0.69,-0.46,-0.24,0.92
2022-12-06 15:21:02.8040,-0.186,-1.055,0.11,-0.2,0.99,-0.9,-0.44,-0.35,0.98
2022-12-06 15:21:02.8140,-0.068,-1.034,0.088,-1.32,0.97,-0.64,-0.42,-0.45,1.1
2022-12-06 15:21:02.8240,0.059,-1.085,0.101,-2.59,0.87,-0.46,-0.44,-0.5,1.3
2022-12-06 15:21:02.8340,0.157,-1.099,0.149,-3.95,1.45,-0.68,-0.48,-0.51,1.51
2022-12-06 15:21:02.8440,0.202,-1.069,0.178,-4.98,1.52,-1.17,-0.48,-0.47,1.75
2022-12-06 15:21:02.8540,0.164,-1.095,0.269,-5.51,1.32,-1.49,-0.48,-0.47,1.75
2022-12-06 15:21:02.8640,0.062,-1.139,0.303,-5.2,1.73,-2.51,-0.6,-0.59,2.16
2022-12-06 15:21:02.8740,-0.031,-1.077,0.227,-4.38,2.14,-2.64,-0.58,-0.52,2.3
2022-12-06 15:21:02.8840,-0.138,-1.074,0.186,-3.68,1.58,-1.98,-0.57,-0.41,2.37
2022-12-06 15:21:02.8940,-0.248,-1.123,0.14,-2.8,1.78,-1.58,-0.56,-0.28,2.36
2022-12-06 15:21:02.9040,-0.262,-1.12,0.094,-2.01,2.33,-1.19,-0.56,-0.28,2.36
2022-12-06 15:21:02.9140,-0.19,-1.131,0.131,-2.21,2.36,-0.79,-0.53,-0.1,2.49
2022-12-06 15:21:02.9240,-0.104,-1.186,0.19,-3.18,2.67,-1.32,-0.51,-0.07,2.66
2022-12-06 15:21:02.9340,-0.036,-1.199,0.255,-4.25,3.32,-1.91,-0.49,-0.01,2.83
2022-12-06 15:21:02.9440,0.021,-1.225,0.315,-5.11,3.58,-2.59,-0.5,0.06,3.04
2022-12-06 15:21:02.9540,0.087,-1.301,0.377,-5.94,4.04,-3.24,-0.57,0.17,3.32
2022-12-06 15:21:02.9640,0.11,-1.4,0.37,-6.83,5.06,-3.86,-0.54,-0.09,3.92
2022-12-06 15:21:02.9740,0.007,-1.437,0.533,-7.25,6.23,-3.77,-0.56,-0.62,4.03
2022-12-06 15:21:02.9840,0.07,-1.465,0.842,-6.48,6.78,-5.88,-0.56,-0.62,4.03
2022-12-06 15:21:02.9940,0.265,-1.483,0.761,-7.74,7.32,-8.48,-0.28,-0.04,3.77
2022-12-06 15:21:03.0040,0.352,-1.63,0.757,-9.83,7.77,-7.53,-0.19,0.11,3.95
2022-12-06 15:21:03.0140,0.28,-1.998,0.863,-10.76,9.84,-7.78,-0.34,0.39,4.07
2022-12-06 15:21:03.0240,0.151,-2.207,0.824,-10.15,13.76,-8.77,-0.59,0.7,4.23
2022-12-06 15:21:03.0340,0.059,-2.292,0.594,-9.19,15.87,-8.33,-0.92,1.54,4.63
2022-12-06 15:21:03.0440,-0.059,-2.361,0.077,-8.6,17.04,-5.81,-0.94,1.97,4.82
2022-12-06 15:21:03.0540,-0.433,-2.365,-0.187,-7.4,18.09,-0.96,-0.69,1.75,4.5
2022-12-06 15:21:03.0640,-0.626,-2.199,-0.095,-3.87,18.37,0.94,-0.61,1.64,3.96
2022-12-06 15:21:03.0740,-0.552,-1.775,0.015,-2.53,16.76,-0.37,-0.63,1.93,3.32
2022-12-06 15:21:03.0840,-0.351,-1.293,-0.164,-3.61,12.68,-1.44,-0.86,2.9,2.97
2022-12-06 15:21:03.0940,-0.349,-1.025,-0.669,-5.65,8.33,0.53,-0.61,3.1,2.86
2022-12-06 15:21:03.1040,-0.824,-0.932,-0.786,-5.14,6.32,5.18,0.05,2.15,2.21
2022-12-06 15:21:03.1140,-1.214,-0.767,-0.295,-0.24,5.56,5.32,0.18,0.57,1.27
2022-12-06 15:21:03.1240,-1.232,-0.729,0.113,3.12,4.03,0.02,-0.17,-0.3,0.61
2022-12-06 15:21:03.1340,-0.954,-0.769,-0.168,2.85,4.0,-3.14,-0.29,-0.46,0.13
2022-12-06 15:21:03.1440,-0.583,-0.492,-0.532,-0.13,4.11,0.15,0.16,-0.52,-0.41
2022-12-06 15:21:03.1540,-0.433,-0.223,-0.624,-3.66,1.12,3.53,0.63,-0.77,-1.07
2022-12-06 15:21:03.1640,-0.489,-0.019,-0.467,-4.75,-1.5,4.12,0.96,-1.07,-1.81
2022-12-06 15:21:03.1740,-0.56,0.115,-0.326,-4.06,-3.64,2.63,1.16,-1.28,-2.53
2022-12-06 15:21:03.1840,-0.626,0.201,-0.253,-3.3,-5.12,1.48,1.3,-1.39,-3.19
2022-12-06 15:21:03.1940,-0.701,0.271,-0.211,-2.55,-6.26,1.02,1.38,-1.43,-3.83
2022-12-06 15:21:03.2040,-0.779,0.315,-0.178,-1.63,-7.27,0.79,1.46,-1.39,-4.39
2022-12-06 15:21:03.2140,-0.813,0.313,-0.18,-0.71,-8.05,0.7,1.55,-1.27,-4.86
2022-12-06 15:21:03.2240,-0.821,0.267,-0.16,-0.18,-8.39,0.91,1.64,-1.1,-5.32
2022-12-06 15:21:03.2340,-0.775,0.225,-0.137,0.15,-8.37,0.85,1.7,-0.84,-5.81
2022-12-06 15:21:03.2440,-0.649,0.191,-0.144,-0.05,-8.43,0.82,1.8,-0.56,-6.27
2022-12-06 15:21:03.2540,-0.467,0.175,-0.178,-0.96,-8.57,1.09,1.8,-0.56,-6.27
2022-12-06 15:21:03.2640,-0.285,0.195,-0.192,-2.31,-8.93,1.6,2.14,-0.27,-6.92
2022-12-06 15:21:03.2740,-0.12,0.22,-0.135,-3.57,-9.6,1.83,2.3,-0.27,-7.1
2022-12-06 15:21:03.2840,0.015,0.21,-0.099,-4.59,-10.24,1.44,2.47,-0.35,-7.21
2022-12-06 15:21:03.2940,0.09,0.157,-0.074,-5.26,-10.46,1.35,2.71,-0.39,-7.23
2022-12-06 15:21:03.3040,0.172,0.055,-0.078,-5.33,-10.21,1.38,2.71,-0.39,-7.23
2022-12-06 15:21:03.3140,0.222,-0.09,-0.049,-5.52,-9.41,1.72,3.03,-0.71,-7.08
2022-12-06 15:21:03.3240,0.151,-0.293,0.082,-5.23,-8.15,1.62,3.02,-1.37,-7.1
2022-12-06 15:21:03.3340,-0.082,-0.6,0.167,-3.66,-6.2,0.6,3.04,-2.04,-7.18
2022-12-06 15:21:03.3440,-0.395,-0.958,0.255,-0.49,-3.17,0.23,2.89,-2.48,-7.29
2022-12-06 15:21:03.3540,-0.654,-1.335,0.389,3.33,0.33,-0.51,2.64,-2.52,-7.26
2022-12-06 15:21:03.3640,-0.79,-1.751,0.282,6.47,4.11,-1.36,2.45,-2.16,-6.78
2022-12-06 15:21:03.3740,-0.926,-2.035,0.087,8.38,8.21,0.15,2.33,-1.86,-5.92
2022-12-06 15:21:03.3840,-1.111,-2.177,-0.107,10.42,10.87,2.31,2.1,-1.41,-5.09
2022-12-06 15:21:03.3940,-1.372,-2.17,-0.164,12.77,12.29,4.26,1.66,-0.94,-4.66
2022-12-06 15:21:03.4040,-1.661,-1.857,-0.085,15.92,12.02,4.8,1.11,-0.66,-4.62
2022-12-06 15:21:03.4140,-1.517,-1.549,0.005,18.97,8.81,3.89,0.54,-0.53,-4.02
2022-12-06 15:21:03.4240,-1.029,-1.575,-0.158,17.14,6.28,3.35,-0.19,-0.97,-2.64
2022-12-06 15:21:03.4340,-0.652,-1.582,-0.345,12.73,6.81,5.01,-0.19,-0.97,-2.64
2022-12-06 15:21:03.4440,-0.16,-1.411,-0.511,9.02,6.66,6.79,-1.0,-1.45,1.15
2022-12-06 15:21:03.4540,-0.149,-1.19,-0.242,4.29,4.76,7.95,-1.29,-1.17,2.92
2022-12-06 15:21:03.4640,-0.694,-1.125,0.023,4.81,2.49,4.73,-1.29,-1.17,2.92
2022-12-06 15:21:03.4740,-1.164,-0.967,0.314,10.15,1.99,2.26,-0.51,-0.44,4.01
2022-12-06 15:21:03.4840,-0.924,-1.023,1.011,13.84,0.02,-0.85,0.7,-2.1,2.38
2022-12-06 15:21:03.4940,-0.009,-1.998,2.015,10.26,1.57,-8.71,0.29,1.33,-0.57
2022-12-06 15:21:03.5040,1.447,-2.611,1.402,0.7,11.78,-17.17,-0.41,5.49,0.88
2022-12-06 15:21:03.5140,2.103,-2.44,1.039,-14.29,16.28,-9.83,-1.33,4.39,3.84
2022-12-06 15:21:03.5240,-0.138,-1.808,0.99,-17.77,14.3,-7.65,-1.99,4.11,3.98
2022-12-06 15:21:03.5340,-1.823,-0.91,0.316,5.24,7.08,-6.48,-1.99,4.11,3.98
2022-12-06 15:21:03.5440,-1.952,-0.507,-0.344,19.33,-1.34,0.28,-1.9,3.41,1.15
2022-12-06 15:21:03.5540,-1.016,-0.651,-0.75,18.78,-4.65,6.34,-1.71,2.73,1.06
2022-12-06 15:21:03.5640,-0.246,-0.735,-0.822,8.99,-2.89,9.74,-1.27,2.09,1.22
2022-12-06 15:21:03.5740,0.247,-0.811,-0.933,1.79,-2.45,10.16,-0.78,1.65,1.59
2022-12-06 15:21:03.5840,0.515,-1.105,-0.806,-3.02,-1.33,11.24,-0.69,0.18,2.15
2022-12-06 15:21:03.5940,0.437,-1.262,-0.122,-5.48,1.51,9.19,-1.02,-1.56,2.44
2022-12-06 15:21:03.6040,0.24,-1.234,0.37,-4.56,2.81,2.09,-1.24,-2.39,2.44
2022-12-06 15:21:03.6140,0.087,-1.044,0.372,-2.9,2.3,-2.09,-1.2,-2.5,2.44
2022-12-06 15:21:03.6240,-0.193,-0.81,0.398,-1.52,0.3,-2.0,-1.05,-2.16,2.45
2022-12-06 15:21:03.6340,-0.63,-0.67,0.43,1.23,-1.93,-2.47,-0.95,-1.29,2.32
2022-12-06 15:21:03.6440,-1.085,-0.708,0.34,5.44,-3.09,-2.72,-0.91,-0.12,1.89
2022-12-06 15:21:03.6540,-1.35,-0.81,0.183,9.62,-2.54,-1.81,-0.83,1.0,1.27
2022-12-06 15:21:03.6640,-1.244,-0.881,-0.03,11.7,-1.54,-0.28,-0.69,1.7,0.76
2022-12-06 15:21:03.6740,-0.853,-0.917,-0.126,10.12,-0.9,1.67,-0.57,1.9,0.47
2022-12-06 15:21:03.6840,-0.39,-0.963,-0.175,6.02,-0.55,2.38,-0.57,1.9,0.47
2022-12-06 15:21:03.6940,0.007,-1.012,-0.208,1.46,-0.07,2.79,-0.33,0.97,0.49
2022-12-06 15:21:03.7040,0.285,-1.053,-0.145,-2.38,0.4,3.0,-0.36,0.08,0.7
2022-12-06 15:21:03.7140,0.363,-1.045,-0.02,-4.97,0.79,2.2,-0.43,-0.7,0.94
2022-12-06 15:21:03.7240,0.213,-0.993,0.043,-5.54,0.63,0.99,-0.48,-1.12,1.1
2022-12-06 15:21:03.7340,-0.066,-0.963,0.081,-3.92,0.15,0.42,-0.48,-1.11,1.15
2022-12-06 15:21:03.7440,-0.342,-0.97,0.112,-1.24,-0.08,0.02,-0.48,-0.85,1.06
2022-12-06 15:21:03.7540,-0.577,-0.985,0.145,1.35,0.04,-0.3,-0.46,-0.47,0.88
2022-12-06 15:21:03.7640,-0.641,-0.991,0.178,3.47,0.19,-0.68,-0.42,-0.05,0.7
2022-12-06 15:21:03.7740,-0.493,-0.997,0.149,3.72,0.26,-0.97,-0.42,-0.05,0.7
2022-12-06 15:21:03.7840,-0.309,-1.007,0.156,2.07,0.33,-0.72,-0.38,0.41,0.63
2022-12-06 15:21:03.7940,-0.148,-1.036,0.133,0.23,0.46,-0.88,-0.35,0.36,0.7
2022-12-06 15:21:03.8040,0.001,-1.064,0.082,-1.4,0.77,-0.6,-0.34,0.21,0.84
2022-12-06 15:21:03.8140,0.124,-1.093,0.044,-2.92,1.05,-0.17,-0.37,0.06,1.0
2022-12-06 15:21:03.8240,0.223,-1.129,0.081,-4.2,1.39,0.14,-0.46,-0.15,1.16
2022-12-06 15:21:03.8340,0.271,-1.116,0.142,-5.21,1.76,-0.37,-0.51,-0.28,1.42
2022-12-06 15:21:03.8440,0.259,-1.055,0.168,-5.78,1.56,-0.95,-0.54,-0.37,1.64
2022-12-06 15:21:03.8540,0.146,-1.058,0.209,-5.67,1.07,-1.24,-0.55,-0.44,1.82
2022-12-06 15:21:03.8640,0.031,-1.09,0.283,-4.68,1.2,-1.74,-0.62,-0.37,1.95
2022-12-06 15:21:03.8740,-0.087,-1.112,0.235,-3.74,1.61,-2.45,-0.62,-0.29,2.06
2022-12-06 15:21:03.8840,-0.182,-1.087,0.172,-2.77,1.83,-1.87,-0.6,-0.16,2.15
2022-12-06 15:21:03.8940,-0.199,-1.101,0.19,-2.1,1.68,-1.42,-0.6,-0.16,2.15
2022-12-06 15:21:03.9040,-0.133,-1.13,0.198,-2.24,1.94,-1.69,-0.6,-0.01,2.34
2022-12-06 15:21:03.9140,-0.03,-1.187,0.187,-3.18,2.34,-1.74,-0.62,-0.04,2.52
2022-12-06 15:21:03.9240,0.052,-1.267,0.303,-4.41,3.06,-1.81,-0.66,-0.14,2.74
2022-12-06 15:21:03.9340,0.103,-1.289,0.407,-5.42,3.96,-3.06,-0.67,-0.21,3.0
2022-12-06 15:21:03.9440,0.093,-1.231,0.479,-6.12,4.2,-4.09,-0.66,-0.16,3.22
2022-12-06 15:21:03.9540,0.028,-1.177,0.507,-6.2,3.77,-4.79,-0.63,-0.1,3.39
2022-12-06 15:21:03.9640,-0.049,-1.187,0.508,-5.8,3.48,-5.07,-0.59,-0.05,3.49
2022-12-06 15:21:03.9740,-0.076,-1.257,0.513,-5.35,3.87,-5.1,-0.54,0.01,3.56
2022-12-06 15:21:03.9840,-0.041,-1.318,0.511,-5.46,4.8,-5.22,-0.42,0.14,3.63
2022-12-06 15:21:03.9940,-0.019,-1.407,0.501,-6.09,5.61,-5.18,-0.34,0.14,3.64
2022-12-06 15:21:04.0040,0.023,-1.586,0.64,-6.55,6.81,-5.22,-0.34,-0.05,3.55
2022-12-06 15:21:04.0140,0.147,-1.787,0.811,-7.3,8.91,-6.79,-0.38,-0.14,3.46
2022-12-06 15:21:04.0240,0.254,-1.883,0.847,-8.81,11.05,-8.35,-0.67,0.27,3.47
2022-12-06 15:21:04.0340,0.275,-1.943,0.719,-9.99,12.1,-8.61,-1.16,1.04,3.82
2022-12-06 15:21:04.0440,0.204,-2.121,0.327,-10.33,13.13,-7.25,-1.07,1.61,4.38
2022-12-06 15:21:04.0540,-0.033,-2.158,-0.158,-9.75,15.19,-3.21,-0.49,1.87,4.38
2022-12-06 15:21:04.0640,-0.505,-2.179,-0.126,-7.31,15.76,0.93,-0.34,1.87,3.91
2022-12-06 15:21:04.0750,-0.688,-2.044,-0.003,-2.89,16.26,-0.01,-0.33,1.6,3.31
2022-12-06 15:21:04.0840,-0.521,-1.691,0.053,-1.8,14.86,-1.22,-0.26,1.51,2.55
2022-12-06 15:21:04.0940,-0.273,-1.179,-0.068,-3.74,11.46,-1.93,-0.54,2.83,2.09
2022-12-06 15:21:04.1040,-0.206,-0.782,-0.701,-6.21,6.47,-0.4,-0.53,3.6,2.29
2022-12-06 15:21:04.1140,-0.731,-0.883,-1.241,-6.32,3.33,5.82,0.31,2.64,2.13
2022-12-06 15:21:04.1240,-1.4,-0.836,-0.719,-0.6,4.81,10.17,0.83,-0.47,1.27
2022-12-06 15:21:04.1340,-1.513,-0.494,0.283,5.52,3.82,3.65,0.42,-2.56,0.15
2022-12-06 15:21:04.1440,-0.886,-0.438,0.252,5.63,0.6,-5.15,0.23,-2.75,-0.59
2022-12-06 15:21:04.1540,-0.191,-0.437,-0.244,-1.13,0.35,-3.38,0.55,-2.48,-0.89
2022-12-06 15:21:04.1640,-0.02,-0.299,-0.474,-7.46,-0.01,1.55,1.23,-2.28,-1.33
2022-12-06 15:21:04.1740,-0.238,-0.183,-0.411,-8.45,-1.48,3.71,1.71,-2.2,-2.03
2022-12-06 15:21:04.1840,-0.444,0.02,-0.22,-6.05,-2.88,3.03,1.84,-1.97,-2.79
2022-12-06 15:21:04.1940,-0.567,0.173,-0.157,-4.05,-5.19,1.5,1.82,-1.71,-3.33
2022-12-06 15:21:04.2040,-0.731,0.201,-0.171,-2.7,-6.83,1.24,1.85,-1.29,-3.74
2022-12-06 15:21:04.2140,-0.87,0.188,-0.253,-0.83,-7.29,1.69,1.96,-0.89,-4.21
2022-12-06 15:21:04.2240,-0.921,0.181,-0.242,0.65,-7.56,2.64,2.04,-0.55,-4.81
2022-12-06 15:21:04.2340,-0.855,0.093,-0.162,1.33,-7.79,2.56,2.0,-0.27,-5.43
2022-12-06 15:21:04.2440,-0.659,0.011,-0.109,0.85,-7.28,1.89,1.94,-0.02,-5.95
2022-12-06 15:21:04.2540,-0.406,0.012,-0.111,-0.78,-6.96,1.58,1.93,0.24,-6.3
2022-12-06 15:21:04.2640,-0.172,0.038,-0.132,-2.84,-7.49,1.79,2.0,0.3,-6.52
2022-12-06 15:21:04.2740,-0.009,0.02,-0.115,-4.56,-8.08,2.06,2.22,0.08,-6.64
2022-12-06 15:21:04.2840,0.173,-0.019,-0.183,-5.59,-8.24,2.15,2.51,-0.15,-6.64
2022-12-06 15:21:04.2940,0.366,-0.12,-0.127,-6.89,-8.14,3.02,2.75,-0.41,-6.54
2022-12-06 15:21:04.3040,0.466,-0.319,0.002,-8.15,-7.29,2.53,2.82,-1.09,-6.31
2022-12-06 15:21:04.3140,0.274,-0.596,0.068,-8.35,-5.47,1.6,2.66,-1.96,-6.14
2022-12-06 15:21:04.3240,-0.175,-0.921,0.044,-5.41,-2.79,1.36,2.44,-2.56,-6.16
2022-12-06 15:21:04.3340,-0.552,-1.112,-0.024,-0.34,0.2,2.0,2.3,-2.78,-6.23
2022-12-06 15:21:04.3440,-0.771,-1.198,-0.001,3.8,1.77,2.9,2.15,-2.62,-6.19
2022-12-06 15:21:04.3540,-0.979,-1.333,0.088,6.47,2.58,2.76,2.15,-2.62,-6.19
2022-12-06 15:21:04.3640,-1.256,-1.44,0.096,9.25,3.97,2.1,1.91,-1.97,-6.12
2022-12-06 15:21:04.3740,-1.38,-1.407,-0.118,12.51,4.87,2.39,1.68,-0.42,-5.86
2022-12-06 15:21:04.3840,-1.366,-1.358,-0.365,14.01,4.52,4.9,1.74,-0.01,-5.63
2022-12-06 15:21:04.3940,-1.23,-1.337,-0.317,14.3,4.17,7.22,1.72,0.16,-5.39
2022-12-06 15:21:04.4040,-0.894,-1.334,0.001,13.19,4.12,6.52,1.34,-0.01,-4.95
2022-12-06 15:21:04.4140,-0.654,-1.447,0.218,10.24,4.29,3.33,0.87,-0.03,-4.26
2022-12-06 15:21:04.4240,-0.63,-1.64,0.05,8.53,5.71,1.78,0.37,0.03,-3.39
2022-12-06 15:21:04.4340,-0.743,-1.641,-0.097,8.81,7.59,3.64,-0.14,0.03,-2.46
2022-12-06 15:21:04.4440,-0.74,-1.474,-0.11,10.16,7.34,4.89,-0.64,0.05,-1.35
2022-12-06 15:21:04.4540,-0.52,-1.364,-0.127,9.92,5.68,4.86,-1.03,0.36,0.08
2022-12-06 15:21:04.4640,-0.333,-1.287,-0.27,7.57,4.65,5.09,-1.06,0.63,1.43
2022-12-06 15:21:04.4740,-0.443,-1.203,-0.21,5.89,3.86,6.44,-1.07,0.93,2.41
2022-12-06 15:21:04.4840,-0.601,-1.112,0.193,6.99,2.83,5.35,-0.04,-0.06,3.04
2022-12-06 15:21:04.4940,-0.337,-1.081,1.333,8.0,1.99,0.78,1.0504276752471924,-0.45,2.46
2022-12-06 15:21:04.5040,0.078,-1.773,2.049,4.75,1.95,-11.03,-0.11,3.35,0.94
2022-12-06 15:21:04.5140,1.14,-2.698,1.539,0.07,9.94,-16.13,-0.7,4.8,2.26
2022-12-06 15:21:04.5250,0.973,-2.513,1.194,-11.02,17.8,-10.64,-1.43,4.48,3.39
2022-12-06 15:21:04.5340,-0.531,-1.698,1.169,-6.91,14.81,-8.09,-2.12,4.57,3.28
2022-12-06 15:21:04.5440,-1.389,-1.114,0.371,7.04,6.46,-7.49,-2.0,4.23,2.84
2022-12-06 15:21:04.5540,-1.643,-0.81,-0.188,14.24,1.33,0.84,-2.0,4.23,2.84
2022-12-06 15:21:04.5640,-1.268,-0.305,-0.132,15.8,-1.88,5.0,-1.71,2.01,1.02
2022-12-06 15:21:04.5740,-0.248,-0.045,-0.522,10.98,-6.91,4.44,-1.2,2.54,0.62
2022-12-06 15:21:04.5840,0.538,-0.232,-0.927,0.61,-8.92,8.66,-0.75,2.55,1.33
2022-12-06 15:21:04.5940,0.505,-0.82,-0.906,-6.5,-6.6,12.05,-0.83,1.22,2.43
2022-12-06 15:21:04.6040,-0.191,-1.548,-0.51,-5.34,-0.42,11.31,-0.97,-1.25,2.75
2022-12-06 15:21:04.6140,-0.757,-1.738,0.079,1.57,6.46,6.85,-1.18,-2.34,1.98
2022-12-06 15:21:04.6240,-0.56,-1.34,0.291,6.3,7.36,1.26,-1.21,-1.94,1.59
2022-12-06 15:21:04.6340,-0.13,-0.881,0.331,3.36,3.18,-0.49,-1.05,-1.05,1.67
2022-12-06 15:21:04.6440,-0.35,-0.52,0.271,-0.41,-1.29,-0.9,-0.8,-0.24,1.72
2022-12-06 15:21:04.6540,-0.865,-0.507,0.175,2.3,-4.52,-0.23,-0.59,0.74,1.39
2022-12-06 15:21:04.6640,-1.136,-0.766,0.101,7.13,-4.15,0.58,-0.51,1.61,0.9
2022-12-06 15:21:04.6740,-0.988,-0.995,0.068,9.17,-1.51,1.24,-0.54,1.98,0.53
2022-12-06 15:21:04.6840,-0.624,-1.053,0.095,7.22,0.56,1.34,-0.5,1.92,0.37
2022-12-06 15:21:04.6940,-0.208,-1.021,0.069,3.45,0.93,1.03,-0.45,1.5,0.42
2022-12-06 15:21:04.7040,0.11,-0.988,0.025,-0.66,0.61,1.24,-0.39,0.83,0.56
2022-12-06 15:21:04.7140,0.235,-0.95,0.003,-3.66,0.26,1.67,-0.43,0.11,0.72
2022-12-06 15:21:04.7240,0.13,-0.965,0.131,-4.65,-0.04,1.66,-0.51,-0.46,0.89
2022-12-06 15:21:04.7340,-0.082,-0.978,0.207,-3.49,0.14,0.32,-0.52,-0.68,0.98
2022-12-06 15:21:04.7440,-0.296,-0.993,0.254,-1.45,0.28,-0.37,-0.55,-0.59,0.95
2022-12-06 15:21:04.7540,-0.489,-0.989,0.283,0.56,0.44,-0.88,-0.55,-0.3,0.8
2022-12-06 15:21:04.7640,-0.582,-0.956,0.204,2.33,0.36,-1.09,-0.49,0.04,0.65
2022-12-06 15:21:04.7740,-0.487,-0.943,0.158,2.97,0.05,-0.29,-0.47,0.28,0.59
2022-12-06 15:21:04.7840,-0.317,-0.962,0.167,1.79,-0.03,-0.03,-0.46,0.34,0.58
2022-12-06 15:21:04.7940,-0.183,-1.013,0.165,0.09,0.21,-0.14,-0.49,0.2,0.63
2022-12-06 15:21:04.8040,-0.061,-1.042,0.162,-1.27,0.73,-0.19,-0.5,-0.0,0.73
2022-12-06 15:21:04.8140,0.021,-1.037,0.125,-2.5,0.97,-0.18,-0.5,-0.0,0.73
2022-12-06 15:21:04.8240,0.026,-1.044,0.105,-3.3,0.95,0.17,-0.52,-0.27,0.99
2022-12-06 15:21:04.8340,0.006,-1.021,0.123,-3.37,1.02,0.25,-0.5,-0.21,1.11
2022-12-06 15:21:04.8440,-0.039,-1.034,0.099,-3.27,0.81,0.09,-0.48,-0.09,1.22
2022-12-06 15:21:04.8540,-0.104,-1.085,0.135,-2.88,1.06,0.24,-0.46,-0.01,1.29
2022-12-06 15:21:04.8640,-0.09,-1.11,0.215,-2.41,1.59,-0.21,-0.45,-0.01,1.42
2022-12-06 15:21:04.8740,-0.024,-1.112,0.34,-2.78,1.84,-1.11,-0.5,-0.01,1.61
2022-12-06 15:21:04.8840,0.031,-1.053,0.391,-3.59,1.88,-2.37,-0.5,0.11,1.81
2022-12-06 15:21:04.8940,0.023,-0.988,0.363,-4.25,1.28,-2.77,-0.49,0.29,2.02
2022-12-06 15:21:04.9040,-0.08,-1.036,0.338,-4.24,0.82,-2.53,-0.48,0.42,2.17
2022-12-06 15:21:04.9140,-0.185,-1.149,0.333,-3.34,1.51,-2.38,-0.47,0.44,2.27
2022-12-06 15:21:04.9240,-0.176,-1.242,0.327,-2.62,2.73,-2.37,-0.47,0.37,2.4
2022-12-06 15:21:04.9340,-0.07,-1.285,0.401,-3.06,3.69,-2.45,-0.49,0.22,2.61
2022-12-06 15:21:04.9440,0.068,-1.259,0.491,-4.41,4.16,-3.27,-0.47,0.09,2.86
2022-12-06 15:21:04.9540,0.161,-1.225,0.544,-5.99,3.97,-4.19,-0.42,0.0,3.14
2022-12-06 15:21:04.9640,0.193,-1.232,0.589,-7.08,3.86,-4.69,-0.36,0.01,3.42
2022-12-06 15:21:04.9740,0.209,-1.267,0.631,-7.63,4.15,-5.18,-0.3,0.06,3.66
2022-12-06 15:21:04.9840,0.23,-1.351,0.68,-8.06,4.76,-5.6,-0.17,0.01,3.87
2022-12-06 15:21:04.9940,0.279,-1.443,0.801,-8.6,5.86,-6.14,0.0,-0.07,4.1
2022-12-06 15:21:05.0040,0.343,-1.483,0.954,-9.41,7.01,-7.42,0.26,-0.11,4.37
2022-12-06 15:21:05.0140,0.314,-1.532,1.055,-10.32,7.62,-8.84,0.49,0.03,4.54
2022-12-06 15:21:05.0240,0.157,-1.652,1.137,-10.14,8.55,-9.8,0.46,0.72,4.56
2022-12-06 15:21:05.0340,0.031,-1.759,0.962,-8.88,10.02,-10.48,0.29,1.96,4.45
2022-12-06 15:21:05.0440,-0.128,-2.118,0.599,-7.95,11.58,-8.52,-0.08,3.18,4.29
2022-12-06 15:21:05.0540,-0.274,-2.52,0.383,-6.57,15.77,-5.32,-0.29,3.85,4.19
2022-12-06 15:21:05.0650,-0.333,-2.516,-0.215,-5.52,19.69,-3.35,0.13,4.03,4.1
2022-12-06 15:21:05.0750,-0.526,-2.247,-0.473,-5.05,19.53,2.4,0.41,4.0,3.91
2022-12-06 15:21:05.0840,-0.673,-1.859,-0.203,-3.24,16.99,3.73,0.46,3.86,3.29
2022-12-06 15:21:05.0940,-0.624,-1.447,-0.091,-2.08,13.43,0.55,0.17,4.52,2.62
2022-12-06 15:21:05.1040,-0.468,-1.145,-0.561,-2.9,9.58,-0.28,0.2,4.84,2.47
2022-12-06 15:21:05.1140,-0.645,-1.103,-0.97,-4.26,7.2,4.38,0.72,3.8,2.17
2022-12-06 15:21:05.1240,-1.103,-1.046,-0.643,-1.98,7.08,7.39,0.82,1.73,0.97
2022-12-06 15:21:05.1350,-0.999,-0.822,-0.19,2.36,6.41,3.3,0.56,0.56,-0.18
2022-12-06 15:21:05.1440,-0.293,-0.6,-0.431,0.27,4.01,-0.48,0.6,0.16,-0.7
2022-12-06 15:21:05.1540,0.156,-0.48,-0.84,-6.69,1.93,2.53,1.14,-0.17,-0.98
2022-12-06 15:21:05.1640,0.164,-0.28,-0.961,-10.46,0.61,6.39,1.82,-0.97,-1.24
2022-12-06 15:21:05.1740,0.041,-0.065,-0.808,-10.18,-1.62,7.32,1.82,-0.97,-1.24
2022-12-06 15:21:05.1840,-0.102,0.003,-0.661,-8.89,-3.77,5.91,2.47,-2.02,-2.32
2022-12-06 15:21:05.1940,-0.183,0.029,-0.655,-7.46,-4.58,4.91,2.65,-2.08,-3.0
2022-12-06 15:21:05.2040,-0.282,0.071,-0.669,-6.58,-5.13,5.28,2.84,-2.14,-3.58
2022-12-06 15:21:05.2140,-0.398,0.137,-0.604,-5.39,-5.92,5.65,3.01,-2.27,-4.09
2022-12-06 15:21:05.2240,-0.44,0.194,-0.505,-4.11,-6.94,5.29,3.21,-2.37,-4.53
2022-12-06 15:21:05.2350,-0.421,0.176,-0.429,-3.54,-7.83,4.7,3.37,-2.28,-4.93
2022-12-06 15:21:05.2440,-0.395,0.018,-0.32,-3.46,-7.88,4.34,3.31,-2.1,-5.42
2022-12-06 15:21:05.2540,-0.376,-0.167,-0.188,-3.34,-6.59,3.56,3.1,-1.94,-5.95
2022-12-06 15:21:05.2640,-0.309,-0.274,-0.15,-3.12,-5.24,2.68,2.91,-1.73,-6.33
2022-12-06 15:21:05.2740,-0.217,-0.329,-0.165,-3.37,-4.67,2.75,2.8,-1.43,-6.59
2022-12-06 15:21:05.2840,-0.159,-0.396,-0.173,-3.71,-4.49,3.18,2.75,-1.06,-6.79
2022-12-06 15:21:05.2940,-0.129,-0.47,-0.155,-3.69,-4.15,3.54,2.67,-0.77,-6.93
2022-12-06 15:21:05.3040,-0.161,-0.57,-0.139,-3.34,-3.69,3.56,2.67,-0.77,-6.93
2022-12-06 15:21:05.3140,-0.275,-0.703,-0.118,-2.32,-2.92,3.72,2.54,-0.69,-7.08
2022-12-06 15:21:05.3250,-0.482,-0.907,-0.011,-0.44,-1.75,3.64,2.38,-0.75,-7.16
2022-12-06 15:21:05.3340,-0.713,-1.176,0.054,2.34,0.19,2.81,2.17,-0.54,-7.2
2022-12-06 15:21:05.3440,-0.875,-1.425,0.079,5.22,2.77,2.45,1.93,-0.26,-7.1
2022-12-06 15:21:05.3540,-0.926,-1.512,0.036,7.34,5.01,2.42,1.84,-0.29,-6.88
2022-12-06 15:21:05.3640,-0.866,-1.458,-0.173,8.32,5.63,3.2,1.83,-0.42,-6.53
2022-12-06 15:21:05.3740,-0.784,-1.406,-0.381,8.28,5.06,5.56,1.7,-0.4,-6.03
2022-12-06 15:21:05.3840,-0.625,-1.458,-0.439,7.98,4.71,7.56,1.49,-0.44,-5.29
2022-12-06 15:21:05.3940,-0.491,-1.591,-0.515,6.83,5.47,8.24,1.1,-1.04,-4.42
2022-12-06 15:21:05.4040,-0.53,-1.642,-0.296,6.12,6.82,8.86,1.1,-1.04,-4.42
2022-12-06 15:21:05.4150,-0.732,-1.63,-0.197,7.1,7.28,6.5,-0.24,-2.09,-2.7
2022-12-06 15:21:05.4240,-0.938,-1.474,-0.278,9.53,7.1,5.85,-0.68,-2.08,-1.82
2022-12-06 15:21:05.4350,-0.934,-1.227,-0.233,11.6,5.38,6.49,-0.68,-2.08,-1.82
2022-12-06 15:21:05.4440,-0.858,-1.075,-0.228,11.41,2.94,5.79,-1.13,-1.25,0.66
2022-12-06 15:21:05.4540,-1.019,-1.027,-0.228,10.8,1.6,5.77,-1.13,-1.25,0.66
2022-12-06 15:21:05.4650,-1.272,-1.12,-0.064,12.56,1.11,5.48,-1.23,-0.69,2.6
2022-12-06 15:21:05.4750,-1.158,-1.019,0.317,14.56,2.01,3.48,-0.23,-0.92,3.35
2022-12-06 15:21:05.4850,-0.846,-0.878,1.389,12.8,0.65,-0.57,1.96,-2.03,3.2
2022-12-06 15:21:05.4950,-0.491,-1.678,2.603,9.17,-0.43,-12.45,0.55,4.77,0.51
2022-12-06 15:21:05.5040,-0.126,-4.031,1.654,6.02,9.94,-21.81,-1.23,8.52,0.84
2022-12-06 15:21:05.5150,0.635,-3.94,0.718,0.96,32.32,-11.26,-1.74,6.15,3.79
2022-12-06 15:21:05.5250,-0.134,-1.266,1.105,-5.93,26.72,-3.5,-2.43,4.11,4.34
2022-12-06 15:21:05.5350,-1.546,0.165,0.84,2.99,0.27,-8.45,-2.21,2.85,2.61
2022-12-06 15:21:05.5450,-1.514,0.301,-0.331,15.68,-11.61,-3.81,-1.9,2.98,1.38
2022-12-06 15:21:05.5550,-0.488,-0.064,-0.606,12.95,-12.09,6.67,-1.82,2.87,1.43
2022-12-06 15:21:05.5650,-0.069,-0.428,-0.794,2.95,-8.3,8.55,-1.42,2.34,1.77
2022-12-06 15:21:05.5750,-0.119,-0.692,-0.946,-0.55,-4.94,10.43,-0.69,0.87,1.97
2022-12-06 15:21:05.5850,-0.064,-1.037,-0.6,-0.11,-2.29,11.45,-0.49,-0.95,2.06
2022-12-06 15:21:05.5950,0.053,-1.299,0.095,-1.06,1.17,7.27,-0.86,-1.69,2.02
2022-12-06 15:21:05.6050,0.069,-1.268,0.325,-2.27,3.42,0.61,-1.13,-1.5,2.03
2022-12-06 15:21:05.6150,-0.123,-1.063,0.226,-2.41,2.85,-1.05,-1.0,-1.2,2.08
2022-12-06 15:21:05.6250,-0.558,-0.825,0.239,-0.36,0.71,-0.11,-0.88,-0.6,2.0
2022-12-06 15:21:05.6350,-1.015,-0.735,0.325,3.91,-1.47,-0.54,-0.85,0.22,1.68
2022-12-06 15:21:05.6450,-1.286,-0.736,0.134,8.08,-2.18,-1.3,-0.63,0.95,1.16
2022-12-06 15:21:05.6550,-1.242,-0.843,-0.178,10.31,-2.05,0.92,-0.45,1.47,0.64
2022-12-06 15:21:05.6650,-0.87,-0.94,-0.082,9.35,-0.89,3.54,-0.39,1.67,0.31
2022-12-06 15:21:05.6750,-0.429,-0.952,0.047,5.39,-0.06,2.19,-0.32,1.45,0.31
2022-12-06 15:21:05.6850,-0.127,-0.965,0.045,1.11,0.01,1.04,-0.29,0.97,0.46
2022-12-06 15:21:05.6950,-0.011,-1.017,0.015,-1.68,0.2,1.1,-0.31,0.4,0.56
2022-12-06 15:21:05.7050,0.005,-1.025,0.033,-2.69,0.72,1.32,-0.32,-0.05,0.67
2022-12-06 15:21:05.7150,-0.025,-0.963,0.073,-2.85,0.7,1.07,-0.32,-0.05,0.67
2022-12-06 15:21:05.7250,-0.143,-0.937,0.097,-2.54,0.1,0.65,-0.31,-0.23,0.86
2022-12-06 15:21:05.7350,-0.315,-0.955,0.12,-1.36,-0.05,0.42,-0.31,-0.22,0.83
2022-12-06 15:21:05.7450,-0.446,-0.967,0.14,0.27,0.15,0.14,-0.33,-0.19,0.73
2022-12-06 15:21:05.7550,-0.441,-0.985,0.158,1.36,0.3,-0.04,-0.37,-0.13,0.67
2022-12-06 15:21:05.7650,-0.325,-0.977,0.183,1.07,0.46,-0.29,-0.37,-0.04,0.69
2022-12-06 15:21:05.7750,-0.242,-0.975,0.159,-0.17,0.38,-0.52,-0.37,0.03,0.75
2022-12-06 15:21:05.7850,-0.208,-0.988,0.122,-0.97,0.41,-0.27,-0.38,0.01,0.79
2022-12-06 15:21:05.7950,-0.186,-1.005,0.104,-1.34,0.56,0.04,-0.39,-0.08,0.83
2022-12-06 15:21:05.8050,-0.135,-1.018,0.119,-1.65,0.76,0.15,-0.41,-0.16,0.92
2022-12-06 15:21:05.8150,-0.096,-1.016,0.129,-2.26,0.89,-0.06,-0.41,-0.13,1.03
2022-12-06 15:21:05.8250,-0.129,-1.02,0.102,-2.67,0.91,-0.14,-0.41,-0.07,1.11
2022-12-06 15:21:05.8350,-0.207,-1.035,0.093,-2.35,0.99,0.1,-0.42,-0.07,1.16
2022-12-06 15:21:05.8450,-0.233,-1.049,0.088,-1.7,1.19,0.12,-0.41,-0.13,1.22
2022-12-06 15:21:05.8550,-0.184,-1.075,0.102,-1.66,1.37,0.14,-0.4,-0.21,1.29
2022-12-06 15:21:05.8650,-0.13,-1.095,0.149,-2.3,1.67,-0.06,-0.39,-0.32,1.42
2022-12-06 15:21:05.8750,-0.091,-1.154,0.256,-2.94,1.94,-0.62,-0.44,-0.46,1.61
2022-12-06 15:21:05.8850,-0.103,-1.175,0.353,-3.42,2.63,-1.7,-0.48,-0.46,1.79
2022-12-06 15:21:05.8950,-0.114,-1.09,0.431,-3.4,2.76,-2.68,-0.51,-0.26,1.96
2022-12-06 15:21:05.9050,-0.121,-0.988,0.413,-3.49,1.94,-3.37,-0.46,0.1,2.13
2022-12-06 15:21:05.9150,-0.118,-0.963,0.392,-3.6,1.06,-3.19,-0.4,0.59,2.3
2022-12-06 15:21:05.9250,-0.122,-1.095,0.34,-3.85,1.14,-3.05,-0.36,0.95,2.48
2022-12-06 15:21:05.9350,-0.195,-1.171,0.274,-3.98,2.61,-2.55,-0.39,0.96,2.61
2022-12-06 15:21:05.9450,-0.241,-1.168,0.278,-3.4,3.37,-2.06,-0.39,0.96,2.61
2022-12-06 15:21:05.9550,-0.16,-1.105,0.281,-3.36,3.37,-2.18,-0.38,0.79,2.74
2022-12-06 15:21:05.9650,-0.105,-1.16,0.357,-4.42,3.0,-2.34,-0.31,0.33,3.15
2022-12-06 15:21:05.9750,-0.092,-1.256,0.414,-5.15,3.86,-3.16,-0.31,0.33,3.15
2022-12-06 15:21:05.9850,-0.079,-1.373,0.46,-5.5,5.0,-3.7,-0.01,0.26,3.5
2022-12-06 15:21:05.9950,-0.068,-1.595,0.564,-5.91,6.47,-4.18,0.09,0.34,3.55
2022-12-06 15:21:06.0050,-0.006,-1.897,0.784,-6.26,9.03,-5.39,0.16,0.44,3.48
2022-12-06 15:21:06.0150,0.144,-2.165,0.987,-7.26,12.24,-7.6,0.11,0.55,3.35
2022-12-06 15:21:06.0250,0.242,-2.32,1.097,-8.93,15.04,-9.58,-0.03,0.82,3.24
2022-12-06 15:21:06.0350,0.353,-2.339,0.973,-10.07,16.58,-10.49,-0.23,1.5,3.32
2022-12-06 15:21:06.0450,0.415,-2.337,0.663,-11.37,16.97,-9.14,-0.66,2.58,3.72
2022-12-06 15:21:06.0550,0.359,-2.287,0.098,-12.08,17.23,-6.11,-0.61,3.11,4.3
2022-12-06 15:21:06.0650,0.143,-2.067,-0.362,-11.6,16.93,-0.62,-0.06,3.18,4.47
2022-12-06 15:21:06.0750,-0.286,-1.761,-0.347,-9.37,14.93,3.09,0.42,3.39,4.13
2022-12-06 15:21:06.0850,-0.545,-1.565,-0.088,-5.35,12.35,2.17,0.58,3.38,3.45
2022-12-06 15:21:06.0950,-0.594,-1.371,0.036,-3.22,10.81,-0.65,0.27,3.59,2.62
2022-12-06 15:21:06.1050,-0.491,-1.145,-0.364,-3.02,9.03,-1.73,0.12,3.93,2.15
2022-12-06 15:21:06.1150,-0.535,-1.032,-0.891,-4.09,7.09,2.49,0.68,3.2,1.79
2022-12-06 15:21:06.1250,-0.862,-0.882,-0.744,-3.25,6.2,6.9,1.16,1.58,0.88
2022-12-06 15:21:06.1350,-1.027,-0.697,-0.2,0.05,4.62,4.45,0.96,0.36,-0.13
2022-12-06 15:21:06.1450,-0.726,-0.704,-0.224,1.16,2.94,-0.59,0.76,0.02,-0.86
2022-12-06 15:21:06.1550,-0.257,-0.584,-0.612,-2.22,3.01,0.5,1.13,-0.12,-1.3
2022-12-06 15:21:06.1650,-0.051,-0.335,-0.755,-6.62,1.37,4.28,1.69,-0.4,-1.7
2022-12-06 15:21:06.1750,-0.104,-0.181,-0.646,-8.17,-1.21,5.41,2.04,-0.69,-2.24
2022-12-06 15:21:06.1850,-0.232,-0.112,-0.5,-7.38,-2.82,4.31,2.23,-0.94,-2.85
2022-12-06 15:21:06.1950,-0.34,-0.085,-0.476,-6.01,-3.72,3.17,2.38,-1.09,-3.43
2022-12-06 15:21:06.2050,-0.442,-0.076,-0.502,-4.81,-4.27,3.29,2.54,-1.3,-3.91
2022-12-06 15:21:06.2150,-0.528,-0.046,-0.439,-3.61,-4.73,3.73,2.68,-1.6,-4.35
2022-12-06 15:21:06.2250,-0.55,0.002,-0.345,-2.6,-5.44,3.3,2.85,-1.87,-4.76
2022-12-06 15:21:06.2350,-0.5,0.02,-0.296,-2.2,-6.29,2.73,3.05,-1.97,-5.15
2022-12-06 15:21:06.2450,-0.42,-0.018,-0.241,-2.43,-6.81,2.62,3.15,-1.95,-5.56
2022-12-06 15:21:06.2550,-0.334,-0.1,-0.16,-2.84,-6.75,2.39,3.14,-1.88,-5.95
2022-12-06 15:21:06.2650,-0.247,-0.163,-0.144,-3.25,-6.34,1.97,3.05,-1.71,-6.28
2022-12-06 15:21:06.2750,-0.161,-0.247,-0.122,-3.61,-6.1,2.23,2.87,-1.5,-6.57
2022-12-06 15:21:06.2850,-0.061,-0.35,-0.108,-3.93,-5.58,2.26,2.74,-1.19,-6.78
2022-12-06 15:21:06.2950,0.027,-0.437,-0.111,-4.34,-4.89,2.48,2.74,-1.19,-6.78
2022-12-06 15:21:06.3050,-0.002,-0.544,-0.045,-4.52,-4.32,2.71,2.52,-1.1,-7.05
2022-12-06 15:21:06.3150,-0.169,-0.742,0.003,-3.4,-3.42,2.29,2.35,-1.34,-7.2
2022-12-06 15:21:06.3250,-0.379,-1.044,-0.04,-0.97,-1.52,2.15,2.24,-1.42,-7.27
2022-12-06 15:21:06.3350,-0.565,-1.329,-0.171,1.8,1.37,2.96,2.24,-1.41,-7.07
2022-12-06 15:21:06.3450,-0.706,-1.504,-0.2,4.25,3.99,4.47,2.23,-1.62,-6.67
2022-12-06 15:21:06.3550,-0.787,-1.578,-0.124,6.24,5.56,4.78,2.13,-1.81,-6.31
2022-12-06 15:21:06.3650,-0.761,-1.57,-0.147,7.57,6.19,4.26,1.98,-1.92,-5.93
2022-12-06 15:21:06.3750,-0.673,-1.542,-0.272,7.79,6.12,4.83,1.78,-1.92,-5.34
2022-12-06 15:21:06.3850,-0.645,-1.61,-0.34,7.51,5.99,6.25,1.4,-1.75,-4.45
2022-12-06 15:21:06.3950,-0.765,-1.788,-0.331,7.77,6.95,6.87,0.85,-1.55,-3.6
2022-12-06 15:21:06.4050,-1.104,-1.823,-0.211,9.64,8.74,6.73,0.1,-1.61,-2.99
2022-12-06 15:21:06.4150,-1.494,-1.696,-0.177,13.43,8.88,5.45,-0.52,-1.91,-2.52
2022-12-06 15:21:06.4250,-1.664,-1.457,-0.29,17.48,7.55,5.28,-0.87,-1.99,-1.9
2022-12-06 15:21:06.4350,-1.205,-1.169,-0.355,18.71,5.05,6.28,-1.03,-1.6,-0.89
2022-12-06 15:21:06.4450,-0.812,-1.017,-0.343,13.88,2.34,6.69,-1.17,-1.17,0.31
2022-12-06 15:21:06.4550,-0.825,-1.002,-0.277,10.53,0.96,6.32,-1.29,-0.73,1.48
2022-12-06 15:21:06.4650,-1.075,-1.034,-0.217,10.93,0.88,5.56,-1.42,-0.24,2.54
2022-12-06 15:21:06.4750,-1.432,-1.116,-0.128,13.33,1.04,4.79,-1.37,0.12,2.99
2022-12-06 15:21:06.4850,-1.552,-0.963,0.244,16.55,1.92,3.69,-0.56,0.53,3.11
2022-12-06 15:21:06.4950,-1.219,-0.644,1.095,16.92,-0.41,-0.36,1.2,-0.86,1.89
2022-12-06 15:21:06.5050,-0.365,-1.372,2.527,12.73,-2.88,-9.99,0.51,5.02,-1.63
2022-12-06 15:21:06.5150,0.952,-3.01,1.502,4.16,6.26,-22.17,0.42,9.47,-0.31
2022-12-06 15:21:06.5250,1.765,-3.068,1.088,-10.03,21.44,-9.69,-0.4,6.7,3.65
2022-12-06 15:21:06.5350,-0.161,-2.035,1.98,-15.28,19.81,-9.0,-2.03,5.73,4.25
2022-12-06 15:21:06.5450,-1.781,-1.056,1.053,4.66,9.27,-16.35,-2.17,4.24,2.27
2022-12-06 15:21:06.5550,-1.603,-0.342,-0.128,18.25,-0.15,-5.84,-2.05,3.55,0.71
2022-12-06 15:21:06.5650,-0.323,-0.342,-0.653,14.17,-6.57,4.64,-1.98,3.59,0.69
2022-12-06 15:21:06.5750,0.455,-0.67,-1.001,1.54,-5.75,9.25,-1.37,2.84,1.7
2022-12-06 15:21:06.5850,0.753,-0.861,-1.016,-5.65,-2.72,12.22,-0.99,1.55,2.3
2022-12-06 15:21:06.5950,0.631,-1.021,-0.688,-8.19,-0.88,11.82,-1.08,-0.41,2.37
2022-12-06 15:21:06.6050,0.49,-1.115,-0.174,-7.0,0.59,8.15,-1.34,-2.13,2.33
2022-12-06 15:21:06.6150,0.267,-1.084,0.262,-5.83,1.47,2.94,-1.3,-2.67,2.48
2022-12-06 15:21:06.6250,-0.202,-0.771,0.399,-3.58,0.81,-1.1,-1.02,-2.41,2.63
2022-12-06 15:21:06.6350,-0.9,-0.635,0.43,1.15,-2.34,-2.22,-0.94,-1.54,2.32
2022-12-06 15:21:06.6450,-1.545,-0.788,0.367,7.96,-3.16,-2.59,-0.97,-0.22,1.63
2022-12-06 15:21:06.6550,-1.772,-0.866,0.087,13.78,-1.59,-1.76,-0.79,0.91,0.91
2022-12-06 15:21:06.6650,-1.523,-0.85,-0.07,15.3,-1.0,0.94,-0.53,1.76,0.39
2022-12-06 15:21:06.6750,-0.959,-0.894,0.026,12.27,-1.14,2.09,-0.49,2.08,0.17
2022-12-06 15:21:06.6850,-0.461,-0.996,0.109,6.59,-0.62,0.83,-0.46,1.81,0.12
2022-12-06 15:21:06.6950,-0.054,-1.088,-0.006,1.85,0.41,0.24,-0.41,1.16,0.24
2022-12-06 15:21:06.7050,0.337,-1.078,-0.026,-2.17,1.23,1.32,-0.45,0.4,0.5
2022-12-06 15:21:06.7150,0.492,-1.01,-0.083,-5.92,1.01,1.36,-0.43,-0.41,0.81
2022-12-06 15:21:06.7250,0.333,-0.961,-0.117,-7.1,0.35,2.02,-0.48,-1.05,1.0
2022-12-06 15:21:06.7350,0.046,-0.972,0.005,-5.34,-0.05,2.1,-0.52,-1.34,1.06
2022-12-06 15:21:06.7450,-0.219,-1.008,0.07,-2.58,0.14,0.86,-0.51,-1.25,1.03
2022-12-06 15:21:06.7550,-0.416,-1.02,0.098,-0.15,0.5,0.31,-0.49,-0.92,0.93
2022-12-06 15:21:06.7650,-0.552,-1.008,0.144,1.64,0.61,-0.01,-0.47,-0.53,0.77
2022-12-06 15:21:06.7750,-0.563,-0.982,0.148,2.81,0.47,-0.48,-0.45,-0.21,0.66
2022-12-06 15:21:06.7850,-0.428,-0.988,0.133,2.64,0.25,-0.51,-0.43,0.01,0.61
2022-12-06 15:21:06.7950,-0.285,-0.997,0.103,1.19,0.35,-0.37,-0.41,0.0,0.62
2022-12-06 15:21:06.8050,-0.153,-1.032,0.102,-0.26,0.45,-0.15,-0.43,-0.2,0.69
2022-12-06 15:21:06.8150,-0.023,-1.084,0.074,-1.6,0.87,-0.15,-0.44,-0.41,0.83
2022-12-06 15:21:06.8250,0.087,-1.079,0.11,-2.96,1.35,0.06,-0.46,-0.59,1.02
2022-12-06 15:21:06.8350,0.089,-1.055,0.15,-4.04,1.28,-0.37,-0.47,-0.65,1.2
2022-12-06 15:21:06.8450,-0.022,-1.036,0.189,-4.0,1.07,-0.77,-0.48,-0.6,1.32
2022-12-06 15:21:06.8550,-0.156,-1.023,0.201,-2.96,0.94,-1.17,-0.45,-0.46,1.38
2022-12-06 15:21:06.8650,-0.262,-1.03,0.216,-1.78,0.87,-1.27,-0.44,-0.29,1.42
2022-12-06 15:21:06.8750,-0.287,-1.046,0.223,-0.94,1.01,-1.51,-0.43,-0.12,1.44
2022-12-06 15:21:06.8850,-0.21,-1.044,0.178,-0.94,1.21,-1.48,-0.44,-0.06,1.54
2022-12-06 15:21:06.8950,-0.079,-1.052,0.207,-1.95,1.23,-1.18,-0.46,-0.06,1.68
2022-12-06 15:21:06.9050,0.046,-1.071,0.167,-3.39,1.39,-1.47,-0.46,-0.08,1.87
2022-12-06 15:21:06.9150,0.139,-1.143,0.158,-4.77,1.7,-1.07,-0.48,-0.17,2.11
2022-12-06 15:21:06.9250,0.162,-1.222,0.161,-5.81,2.55,-1.07,-0.52,-0.3,2.34
2022-12-06 15:21:06.9350,0.113,-1.274,0.226,-6.12,3.39,-1.17,-0.58,-0.46,2.52
2022-12-06 15:21:06.9450,0.067,-1.243,0.334,-5.82,3.95,-1.92,-0.61,-0.53,2.74
2022-12-06 15:21:06.9550,0.018,-1.172,0.426,-5.64,3.67,-3.02,-0.58,-0.46,2.94
2022-12-06 15:21:06.9650,-0.076,-1.164,0.477,-5.34,3.18,-3.89,-0.52,-0.41,3.1
2022-12-06 15:21:06.9750,-0.124,-1.163,0.489,-4.67,3.32,-4.36,-0.43,-0.35,3.22
2022-12-06 15:21:06.9850,-0.084,-1.159,0.482,-4.57,3.47,-4.46,-0.35,-0.23,3.35
2022-12-06 15:21:06.9950,-0.031,-1.188,0.445,-5.28,3.65,-4.37,-0.21,-0.19,3.49
2022-12-06 15:21:07.0050,0.011,-1.25,0.474,-6.05,4.2,-4.01,-0.02,-0.17,3.58
2022-12-06 15:21:07.0150,0.071,-1.411,0.566,-6.73,5.08,-4.42,0.11,-0.09,3.64
2022-12-06 15:21:07.0250,0.154,-1.681,0.715,-7.62,7.11,-5.35,0.02,0.13,3.69
2022-12-06 15:21:07.0350,0.255,-1.725,0.789,-8.71,9.94,-6.9,-0.16,0.73,3.85
2022-12-06 15:21:07.0450,0.247,-1.594,0.532,-9.94,10.26,-7.34,-0.19,1.51,4.31
2022-12-06 15:21:07.0550,-0.06,-1.679,0.286,-9.87,9.38,-4.66,-0.26,1.78,4.46
2022-12-06 15:21:07.0650,-0.534,-1.967,0.324,-6.66,10.95,-2.79,-0.65,2.32,4.09
2022-12-06 15:21:07.0750,-0.602,-2.106,0.106,-2.58,14.07,-3.39,-0.59,2.71,3.78
2022-12-06 15:21:07.0850,-0.517,-1.961,-0.162,-2.48,15.42,-1.09,-0.12,2.55,3.49
2022-12-06 15:21:07.0950,-0.474,-1.762,0.004,-3.47,14.03,0.89,0.02,1.99,3.05
2022-12-06 15:21:07.1050,-0.399,-1.647,0.296,-3.97,12.43,-1.31,-0.11,1.5,2.19
2022-12-06 15:21:07.1150,-0.127,-1.42,0.339,-4.97,11.53,-4.19,-0.7,2.18,1.42
2022-12-06 15:21:07.1250,0.139,-0.974,-0.227,-7.88,9.03,-4.23,-1.16,3.27,1.43
2022-12-06 15:21:07.1350,-0.08,-0.972,-0.933,-10.16,5.02,1.56,-0.76,2.97,1.6
2022-12-06 15:21:07.1450,-0.761,-1.033,-1.052,-7.27,5.67,7.96,-0.03,1.09,1.03
2022-12-06 15:21:07.1550,-1.193,-0.767,-0.245,-0.45,5.95,7.73,-0.05,-1.56,0.25
2022-12-06 15:21:07.1650,-1.01,-0.603,0.208,2.97,3.17,-0.36,-0.33,-2.75,-0.33
2022-12-06 15:21:07.1750,-0.55,-0.61,-0.036,0.58,1.89,-3.56,-0.23,-2.77,-0.66
2022-12-06 15:21:07.1850,-0.246,-0.512,-0.342,-3.99,1.87,-0.51,0.14,-2.46,-0.98
2022-12-06 15:21:07.1950,-0.302,-0.369,-0.406,-6.5,0.68,2.49,0.57,-2.19,-1.57
2022-12-06 15:21:07.2050,-0.421,-0.213,-0.225,-5.64,-0.88,2.98,0.88,-2.08,-2.24
2022-12-06 15:21:07.2150,-0.487,-0.047,-0.08,-4.45,-2.65,1.29,1.04,-1.92,-2.84
2022-12-06 15:21:07.2250,-0.559,0.036,-0.07,-3.71,-4.5,0.3,1.08,-1.69,-3.34
2022-12-06 15:21:07.2350,-0.711,-0.01,-0.049,-2.77,-5.43,0.41,1.06,-1.39,-3.81
2022-12-06 15:21:07.2450,-0.87,-0.1,-0.037,-1.01,-5.2,0.39,1.03,-1.09,-4.36
2022-12-06 15:21:07.2550,-0.921,-0.169,-0.039,0.73,-4.68,0.41,1.09,-0.81,-4.83
2022-12-06 15:21:07.2650,-0.848,-0.224,-0.054,1.33,-4.42,0.6,1.12,-0.56,-5.21
2022-12-06 15:21:07.2750,-0.746,-0.256,-0.025,0.89,-4.27,0.8,1.11,-0.29,-5.59
2022-12-06 15:21:07.2850,-0.609,-0.207,-0.073,0.23,-4.43,0.63,1.2,0.01,-5.92
2022-12-06 15:21:07.2960,-0.492,-0.125,-0.147,-0.71,-5.41,1.31,1.33,0.26,-6.25
2022-12-06 15:21:07.3050,-0.407,-0.08,-0.156,-1.33,-6.56,2.04,1.49,0.38,-6.56
2022-12-06 15:21:07.3150,-0.325,-0.056,-0.151,-1.63,-7.34,2.18,1.67,0.3,-6.8
2022-12-06 15:21:07.3250,-0.243,-0.065,-0.135,-1.87,-7.9,2.25,1.88,0.12,-6.96
2022-12-06 15:21:07.3350,-0.196,-0.14,-0.143,-2.06,-8.05,2.26,2.13,-0.06,-7.1
2022-12-06 15:21:07.3450,-0.172,-0.268,-0.18,-1.84,-7.51,2.57,2.45,-0.3,-7.19
2022-12-06 15:21:07.3550,-0.171,-0.471,-0.179,-1.4,-6.39,3.2,2.67,-0.75,-7.19
2022-12-06 15:21:07.3650,-0.203,-0.732,-0.073,-0.68,-4.46,3.31,2.74,-1.34,-7.1
2022-12-06 15:21:07.3750,-0.275,-1.028,-0.028,0.36,-1.94,2.54,2.74,-1.34,-7.1
2022-12-06 15:21:07.3850,-0.406,-1.264,-0.014,1.83,0.91,2.48,2.59,-2.13,-6.74
2022-12-06 15:21:07.3950,-0.575,-1.474,-0.003,3.87,3.16,2.57,2.59,-2.13,-6.466017723083496
2022-12-06 15:21:07.4050,-0.769,-1.697,-0.057,6.23,5.3,2.79,2.37,-2.11,-5.95
2022-12-06 15:21:07.4150,-0.896,-1.943,0.004,8.72,7.6,3.49,1.93,-1.65,-5.2
2022-12-06 15:21:07.4250,-1.124,-2.183,0.126,10.42,10.2,2.87,1.11,-0.76,-4.68
2022-12-06 15:21:07.4350,-1.611,-2.08,0.188,13.49,12.44,1.81,0.26,-0.51,-4.58
2022-12-06 15:21:07.4450,-1.73,-1.745,0.242,18.67,11.04,1.2,-0.43,-0.34,-4.2
2022-12-06 15:21:07.4550,-1.097,-1.476,-0.049,19.27,7.83,0.83,-0.65,-0.45,-3.06
2022-12-06 15:21:07.4650,-0.565,-1.269,-0.536,12.92,5.4,4.15,-0.6,-0.96,-1.41
2022-12-06 15:21:07.4750,-0.236,-1.051,-0.424,8.22,3.31,8.47,-0.86,-1.3,0.48
2022-12-06 15:21:07.4850,-0.254,-0.969,-0.178,5.21,1.29,6.51,-0.99,-1.03,2.03
2022-12-06 15:21:07.4950,-0.627,-1.121,-0.093,5.79,0.59,4.4,-1.16,-0.43,2.94
2022-12-06 15:21:07.5050,-1.105,-0.962,0.069,9.37,2.01,3.21,-0.76,0.47,3.68
2022-12-06 15:21:07.5150,-1.444,-0.766,0.514,13.85,-0.12,1.75,0.01,0.35,2.8
2022-12-06 15:21:07.5250,-0.831,-1.292,1.486,16.07,-1.68,-3.75,-0.21,2.06,-0.04
2022-12-06 15:21:07.5350,0.472,-2.555,0.89,9.05,4.96,-12.35,-0.04,6.14,-0.25
2022-12-06 15:21:07.5450,1.792,-2.803,0.399,-4.9,16.86,-4.49,-0.11,5.58,2.82
2022-12-06 15:21:07.5550,0.598,-2.301,1.566,-16.1,17.77,-2.24,-1.55,4.71,4.12
2022-12-06 15:21:07.5650,-1.074,-1.454,1.306,-2.46,12.35,-13.46,-1.99,3.79,3.28
2022-12-06 15:21:07.5750,-1.612,-0.647,0.106,12.44,3.59,-8.91,-1.84,3.41,2.12
2022-12-06 15:21:07.5850,-1.137,-0.486,-0.511,15.92,-3.7,2.52,-1.66,3.12,1.65
2022-12-06 15:21:07.5950,-0.615,-0.458,-0.572,10.45,-4.8,7.47,-1.47,3.0,1.57
2022-12-06 15:21:07.6050,-0.257,-0.572,-0.688,5.41,-5.11,7.73,-0.9,2.55,1.77
2022-12-06 15:21:07.6150,0.002,-0.848,-0.638,1.76,-3.68,8.89,-0.73,1.52,1.86
2022-12-06 15:21:07.6250,0.081,-1.06,-0.152,-0.77,-0.99,7.73,-1.02,-0.0,1.8
2022-12-06 15:21:07.6350,0.103,-1.188,0.21,-1.56,0.97,2.67,-1.39,-1.21,1.69
2022-12-06 15:21:07.6450,0.097,-1.168,0.285,-1.91,2.12,-0.6,-1.51,-1.7,1.74
2022-12-06 15:21:07.6550,-0.092,-0.922,0.237,-1.88,1.61,-1.23,-1.25,-1.85,1.88
2022-12-06 15:21:07.6650,-0.521,-0.726,0.193,0.16,-0.93,-0.8,-1.01,-1.39,1.8
2022-12-06 15:21:07.6750,-0.988,-0.784,0.189,4.4,-2.58,-0.52,-0.95,-0.56,1.4
2022-12-06 15:21:07.6850,-1.208,-0.908,0.076,8.71,-1.75,-0.51,-0.86,0.24,0.98
2022-12-06 15:21:07.6950,-1.044,-0.935,-0.032,10.32,-0.64,0.65,-0.73,0.87,0.61
2022-12-06 15:21:07.7050,-0.669,-0.939,-0.045,8.24,-0.45,1.46,-0.62,1.14,0.39
2022-12-06 15:21:07.7150,-0.304,-0.957,-0.083,4.45,-0.39,1.5,-0.52,1.1,0.35
2022-12-06 15:21:07.7250,-0.027,-0.995,-0.109,0.89,-0.19,1.85,-0.47,0.71,0.43
2022-12-06 15:21:07.7350,0.102,-1.022,-0.054,-1.71,0.19,1.95,-0.47,0.71,0.43
2022-12-06 15:21:07.7450,0.145,-1.022,-0.006,-2.88,0.43,1.32,-0.5,-0.42,0.69
2022-12-06 15:21:07.7550,0.109,-1.004,0.025,-3.28,0.41,0.84,-0.53,-0.75,0.82
2022-12-06 15:21:07.7650,0.007,-0.981,0.037,-2.9,0.22,0.52,-0.52,-0.86,0.88
2022-12-06 15:21:07.7750,-0.163,-0.974,0.042,-1.91,0.03,0.39,-0.5,-0.81,0.86
2022-12-06 15:21:07.7850,-0.296,-0.995,0.069,-0.25,0.0,0.29,-0.5,-0.63,0.83
2022-12-06 15:21:07.7950,-0.348,-1.013,0.093,0.83,0.25,-0.04,-0.48,-0.38,0.73
2022-12-06 15:21:07.8050,-0.35,-0.987,0.101,1.25,0.38,-0.26,-0.47,-0.2,0.7
2022-12-06 15:21:07.8150,-0.272,-0.977,0.103,1.08,0.12,-0.42,-0.48,-0.05,0.69
2022-12-06 15:21:07.8250,-0.181,-0.992,0.063,0.22,0.08,-0.39,-0.49,0.03,0.7
2022-12-06 15:21:07.8350,-0.056,-1.018,0.048,-0.78,0.26,-0.09,-0.5,-0.0,0.77
2022-12-06 15:21:07.8450,0.057,-1.033,0.022,-2.09,0.54,0.04,-0.54,-0.16,0.92
2022-12-06 15:21:07.8550,0.151,-1.026,0.053,-3.27,0.67,0.19,-0.59,-0.35,1.08
2022-12-06 15:21:07.8650,0.158,-1.02,0.079,-4.23,0.62,-0.2,-0.63,-0.52,1.25
2022-12-06 15:21:07.8750,0.051,-1.019,0.056,-4.27,0.6,-0.44,-0.63,-0.55,1.36
2022-12-06 15:21:07.8850,-0.074,-1.049,0.082,-3.24,0.64,-0.25,-0.63,-0.48,1.43
2022-12-06 15:21:07.8950,-0.133,-1.099,0.115,-2.22,1.04,-0.63,-0.61,-0.34,1.49
2022-12-06 15:21:07.9050,-0.127,-1.092,0.182,-1.85,1.53,-0.98,-0.6,-0.2,1.61
2022-12-06 15:21:07.9150,-0.037,-1.079,0.234,-2.15,1.44,-1.76,-0.62,-0.02,1.76
2022-12-06 15:21:07.9250,0.084,-1.104,0.156,-3.3,1.44,-2.16,-0.65,0.07,1.94
2022-12-06 15:21:07.9350,0.152,-1.133,0.108,-4.62,1.76,-1.42,-0.65,0.07,1.94
2022-12-06 15:21:07.9450,0.191,-1.179,0.091,-5.42,2.15,-1.04,-0.73,-0.18,2.46
2022-12-06 15:21:07.9550,0.205,-1.21,0.17,-6.03,2.7,-1.05,-0.73,-0.18,2.46
2022-12-06 15:21:07.9650,0.097,-1.22,0.254,-6.31,3.1,-1.92,-0.81,-0.46,2.99
2022-12-06 15:21:07.9750,-0.109,-1.207,0.306,-5.33,3.29,-2.81,-0.76,-0.47,3.16
2022-12-06 15:21:07.9850,-0.296,-1.203,0.301,-3.56,3.31,-3.23,-0.72,-0.32,3.23
2022-12-06 15:21:07.9950,-0.425,-1.238,0.32,-2.05,3.48,-3.29,-0.65,-0.09,3.2
2022-12-06 15:21:08.0050,-0.415,-1.284,0.307,-1.18,4.02,-3.45,-0.58,0.2,3.2
2022-12-06 15:21:08.0150,-0.301,-1.366,0.354,-1.72,4.67,-3.43,-0.49,0.41,3.23
2022-12-06 15:21:08.0250,-0.157,-1.477,0.468,-3.14,5.73,-4.03,-0.39,0.54,3.32
2022-12-06 15:21:08.0350,-0.003,-1.655,0.594,-4.84,7.04,-5.27,-0.41,0.62,3.4
2022-12-06 15:21:08.0450,0.113,-1.896,0.794,-6.57,9.15,-6.61,-0.62,0.57,3.47
2022-12-06 15:21:08.0550,0.27,-1.963,0.931,-7.96,11.65,-8.74,-0.77,0.39,3.82
2022-12-06 15:21:08.0650,0.288,-1.887,0.881,-9.76,12.33,-9.87,-0.77,0.39,3.82
2022-12-06 15:21:08.0750,0.179,-1.81,0.939,-9.92,11.78,-9.46,-0.8,-0.16,4.1
2022-12-06 15:21:08.0850,0.18,-1.83,0.757,-9.17,11.45,-10.1,-1.9,1.08,4.12
2022-12-06 15:21:08.0950,0.232,-1.891,0.157,-9.57,12.05,-7.97,-2.06,1.87,4.88
2022-12-06 15:21:08.1050,-0.022,-1.94,-0.446,-10.24,13.09,-2.03,-1.25,1.57,4.94
2022-12-06 15:21:08.1150,-0.631,-2.024,-0.404,-7.32,14.0,3.23,-0.69,0.78,4.27
2022-12-06 15:21:08.1250,-0.821,-1.819,0.053,-1.65,15.06,1.84,-0.43,0.12,3.36
2022-12-06 15:21:08.1350,-0.447,-1.234,0.276,-0.73,12.8,-2.66,-0.51,0.22,2.72
2022-12-06 15:21:08.1450,-0.09,-0.681,-0.135,-4.9,7.02,-4.28,-0.62,0.96,2.42
2022-12-06 15:21:08.1550,-0.185,-0.603,-0.667,-8.01,2.3,0.32,-0.26,0.71,2.37
2022-12-06 15:21:08.1650,-0.672,-0.633,-0.573,-6.6,2.19,4.97,0.15,-0.6,1.87
2022-12-06 15:21:08.1750,-1.05,-0.499,0.041,-1.68,2.42,3.24,-0.02,-2.31,0.95
2022-12-06 15:21:08.1850,-1.093,-0.472,0.277,1.51,1.13,-2.65,-0.31,-2.81,-0.12
2022-12-06 15:21:08.1950,-0.882,-0.594,-0.059,1.57,1.14,-3.84,-0.31,-2.81,-0.12
2022-12-06 15:21:08.2050,-0.59,-0.507,-0.358,-0.77,2.16,-0.08,-0.21,-1.87,-1.56
2022-12-06 15:21:08.2150,-0.554,-0.289,-0.404,-3.39,0.88,2.74,0.21,-1.6,-2.28
2022-12-06 15:21:08.2250,-0.613,-0.103,-0.21,-3.38,-1.5,2.98,0.51,-1.43,-3.02
2022-12-06 15:21:08.2350,-0.619,-0.003,-0.066,-2.73,-3.51,1.14,0.63,-1.27,-3.6
2022-12-06 15:21:08.2450,-0.591,0.066,0.006,-2.57,-4.73,0.0,0.68,-1.17,-3.99
2022-12-06 15:21:08.2550,-0.572,0.125,0.036,-2.67,-5.75,-0.54,0.74,-1.02,-4.33
2022-12-06 15:21:08.2650,-0.591,0.11,0.001,-2.58,-6.65,-0.62,0.81,-0.84,-4.71
2022-12-06 15:21:08.2750,-0.615,0.053,-0.008,-2.1,-6.78,-0.16,0.88,-0.67,-5.13
2022-12-06 15:21:08.2850,-0.623,-0.007,-0.024,-1.58,-6.64,0.01,0.95,-0.55,-5.56
2022-12-06 15:21:08.2950,-0.6,-0.079,-0.041,-1.16,-6.43,0.29,1.03,-0.49,-5.95
2022-12-06 15:21:08.3050,-0.515,-0.086,-0.066,-1.05,-6.2,0.56,1.18,-0.43,-6.26
2022-12-06 15:21:08.3150,-0.416,-0.068,-0.088,-1.47,-6.61,0.93,1.18,-0.43,-6.26
2022-12-06 15:21:08.3250,-0.317,-0.064,-0.07,-1.94,-7.2,1.25,1.54,-0.33,-6.71
2022-12-06 15:21:08.3350,-0.231,-0.1,-0.036,-2.37,-7.55,1.16,1.54,-0.33,-6.71
2022-12-06 15:21:08.3450,-0.182,-0.153,-0.045,-2.6,-7.52,1.03,1.99,-0.33,-7.04
2022-12-06 15:21:08.3550,-0.135,-0.258,-0.049,-2.43,-7.23,1.34,2.24,-0.36,-7.14
2022-12-06 15:21:08.3650,-0.097,-0.362,-0.051,-2.25,-6.44,1.58,2.49,-0.42,-7.2
2022-12-06 15:21:08.3750,-0.089,-0.492,-0.07,-1.93,-5.61,1.85,2.74,-0.56,-7.21
2022-12-06 15:21:08.3850,-0.121,-0.671,-0.1,-1.27,-4.43,2.35,2.98,-0.9,-7.17
2022-12-06 15:21:08.3950,-0.173,-0.954,-0.059,-0.22,-2.64,2.91,3.11,-1.47,-7.02
2022-12-06 15:21:08.4050,-0.247,-1.298,0.081,1.0,0.25,2.67,3.03,-2.06,-6.76
2022-12-06 15:21:08.4150,-0.415,-1.609,0.187,2.49,3.67,1.55,2.81,-2.5,-6.49
2022-12-06 15:21:08.4250,-0.618,-1.827,0.146,4.94,6.71,0.9,2.6,-2.74,-6.04
2022-12-06 15:21:08.4350,-0.692,-2.047,0.002,7.46,8.9,1.71,2.39,-2.67,-5.25
2022-12-06 15:21:08.4450,-0.836,-2.201,-0.043,8.64,11.25,3.32,1.69,-2.2,-4.53
2022-12-06 15:21:08.4560,-1.274,-2.077,0.225,10.85,12.61,3.49,0.6,-1.69,-4.32
2022-12-06 15:21:08.4650,-1.702,-1.88,0.374,15.84,11.26,0.69,-0.39,-1.35,-4.05
2022-12-06 15:21:08.4750,-1.69,-1.74,0.037,20.07,9.5,-0.34,-0.87,-1.17,-3.11
2022-12-06 15:21:08.4850,-1.203,-1.498,-0.569,19.53,8.19,3.4,-0.74,-1.26,-1.6
2022-12-06 15:21:08.4950,-0.625,-1.117,-0.781,14.66,5.57,9.2,-0.74,-1.26,-1.6
2022-12-06 15:21:08.5050,-0.207,-0.927,-0.411,8.95,1.9,10.2,-1.05,-0.74,2.41
2022-12-06 15:21:08.5150,-0.47,-0.925,-0.204,5.22,0.17,6.37,-1.33,-0.0,3.88
2022-12-06 15:21:08.5250,-1.294,-1.136,-0.149,8.43,0.21,4.5,-1.14,0.3,4.29
2022-12-06 15:21:08.5350,-1.519,-1.093,0.492,16.21,2.43,3.79,-0.12,-0.4,2.88
2022-12-06 15:21:08.5450,-0.566,-1.127,1.564,16.5,0.98,-3.69,-0.12,-0.4,2.88
2022-12-06 15:21:08.5550,0.652,-2.424,1.52,6.83,3.12,-13.81,-0.03,6.83,-2.12
2022-12-06 15:21:08.5650,2.719,-2.371,0.419,-6.45,15.72,-10.37,0.22,5.32,2.63
2022-12-06 15:21:08.5760,1.406,-1.574,2.085,-25.71,13.02,-2.31,-1.35,4.62,4.58
2022-12-06 15:21:08.5850,-1.163,-1.501,1.582,-8.56,5.65,-18.92,-1.65,4.46,3.25
2022-12-06 15:21:08.5950,-1.956,-1.373,0.081,14.31,5.43,-10.67,-1.49,3.85,1.68
2022-12-06 15:21:08.6050,-1.523,-0.982,-0.204,20.06,3.59,2.73,-1.68,3.36,1.18
2022-12-06 15:21:08.6150,-0.766,-0.686,-0.266,14.48,-0.26,4.39,-1.73,3.21,1.0
2022-12-06 15:21:08.6250,-0.373,-0.582,-0.675,7.37,-3.11,5.25,-1.13,2.91,1.17
2022-12-06 15:21:08.6350,0.107,-0.815,-0.806,3.42,-3.69,9.34,-0.66,1.88,1.6
2022-12-06 15:21:08.6450,0.44,-1.071,-0.331,-1.57,-1.24,9.68,-0.86,0.8,1.77
2022-12-06 15:21:08.6550,0.432,-1.191,0.042,-4.56,1.15,4.66,-1.08,-0.57,1.86
2022-12-06 15:21:08.6650,0.249,-1.162,0.129,-4.35,2.12,1.33,-1.22,-1.62,1.97
2022-12-06 15:21:08.6750,-0.022,-0.976,0.131,-2.58,1.6,0.54,-1.18,-2.01,2.03
2022-12-06 15:21:08.6850,-0.328,-0.807,0.126,-0.01,-0.31,0.48,-1.03,-1.84,1.89
2022-12-06 15:21:08.6950,-0.656,-0.787,0.223,2.88,-1.84,0.36,-0.92,-1.23,1.59
2022-12-06 15:21:08.7050,-0.895,-0.86,0.305,5.94,-1.87,-0.77,-0.85,-0.41,1.26
2022-12-06 15:21:08.7150,-0.93,-0.93,0.277,7.98,-1.11,-1.51,-0.77,0.36,1.05
2022-12-06 15:21:08.7250,-0.759,-0.964,0.203,7.9,-0.47,-1.24,-0.71,0.91,0.82
2022-12-06 15:21:08.7350,-0.508,-0.988,0.116,6.0,-0.17,-0.55,-0.73,1.16,0.62
2022-12-06 15:21:08.7450,-0.206,-1.008,0.027,3.39,0.07,0.21,-0.69,1.04,0.57
2022-12-06 15:21:08.7550,0.074,-0.996,-0.099,0.33,0.23,1.06,-0.61,0.68,0.68
2022-12-06 15:21:08.7650,0.251,-0.993,-0.146,-2.4,0.1,2.2,-0.6,0.14,0.82
2022-12-06 15:21:08.7750,0.271,-1.004,-0.119,-4.05,0.11,2.47,-0.6,0.14,0.82
2022-12-06 15:21:08.7850,0.219,-0.957,-0.074,-4.15,0.18,2.11,-0.62,-1.02,1.03
2022-12-06 15:21:08.7950,0.143,-0.955,0.029,-3.72,-0.3,1.59,-0.62,-1.17,1.13
2022-12-06 15:21:08.8050,-0.011,-1.012,0.131,-3.01,-0.19,0.48,-0.65,-1.07,1.18
2022-12-06 15:21:08.8150,-0.276,-1.034,0.197,-1.46,0.38,-0.53,-0.62,-0.73,1.13
2022-12-06 15:21:08.8250,-0.495,-1.002,0.183,1.09,0.54,-1.13,-0.58,-0.29,0.97
2022-12-06 15:21:08.8350,-0.518,-0.976,0.136,2.98,0.22,-0.98,-0.54,0.01,0.83
2022-12-06 15:21:08.8450,-0.329,-0.97,0.087,2.83,-0.01,-0.55,-0.53,0.2,0.79
2022-12-06 15:21:08.8550,-0.104,-0.996,0.036,0.75,-0.01,-0.14,-0.52,0.23,0.86
2022-12-06 15:21:08.8650,0.049,-1.031,0.025,-1.48,0.28,0.31,-0.55,0.04,0.98
2022-12-06 15:21:08.8750,0.151,-1.072,0.051,-2.98,0.65,0.28,-0.6,-0.21,1.15
2022-12-06 15:21:08.8850,0.247,-1.098,0.076,-4.08,1.08,-0.03,-0.66,-0.34,1.35
2022-12-06 15:21:08.8960,0.272,-1.087,0.077,-5.12,1.32,-0.32,-0.69,-0.43,1.56
2022-12-06 15:21:08.9060,0.147,-1.078,0.079,-5.34,1.23,-0.36,-0.7,-0.48,1.72
2022-12-06 15:21:08.9160,-0.011,-1.054,0.09,-4.15,1.19,-0.44,-0.73,-0.51,1.78
2022-12-06 15:21:08.9250,-0.107,-1.056,0.102,-2.79,0.99,-0.64,-0.71,-0.49,1.83
2022-12-06 15:21:08.9350,-0.109,-1.064,0.133,-2.15,1.12,-0.73,-0.68,-0.4,1.96
2022-12-06 15:21:08.9450,-0.117,-1.098,0.258,-2.37,1.25,-1.28,-0.72,-0.32,2.09
2022-12-06 15:21:08.9550,-0.123,-1.085,0.232,-2.43,1.69,-2.45,-0.69,-0.17,2.21
2022-12-06 15:21:08.9650,-0.07,-1.013,0.195,-2.66,1.5,-2.13,-0.68,-0.02,2.38
2022-12-06 15:21:08.9760,-0.049,-1.06,0.192,-3.4,0.97,-1.9,-0.67,0.02,2.56
2022-12-06 15:21:08.9850,-0.069,-1.173,0.227,-3.77,1.68,-1.94,-0.73,-0.02,2.7
2022-12-06 15:21:08.9950,-0.057,-1.24,0.27,-3.81,2.91,-2.42,-0.77,-0.12,2.88
2022-12-06 15:21:09.0060,-0.042,-1.214,0.319,-4.23,3.59,-2.87,-0.77,-0.17,3.09
2022-12-06 15:21:09.0160,-0.102,-1.176,0.35,-4.58,3.41,-3.41,-0.73,-0.23,3.24
2022-12-06 15:21:09.0260,-0.168,-1.193,0.368,-4.18,3.27,-3.74,-0.69,-0.24,3.35
2022-12-06 15:21:09.0350,-0.153,-1.252,0.389,-3.88,3.66,-3.95,-0.65,-0.25,3.45
2022-12-06 15:21:09.0450,-0.08,-1.313,0.428,-4.39,4.48,-4.21,-0.53,-0.22,3.58
2022-12-06 15:21:09.0560,-0.028,-1.386,0.469,-5.43,5.27,-4.64,-0.38,-0.13,3.68
2022-12-06 15:21:09.0650,-0.06,-1.555,0.598,-6.11,6.31,-5.07,-0.36,-0.15,3.67
2022-12-06 15:21:09.0760,-0.013,-1.659,0.828,-6.05,8.27,-6.57,-0.36,-0.35,3.66
2022-12-06 15:21:09.0860,0.144,-1.642,0.94,-6.95,9.33,-8.75,-0.41,-0.59,3.67
2022-12-06 15:21:09.0960,0.228,-1.671,0.92,-8.76,9.41,-9.69,-0.57,-0.44,3.63
2022-12-06 15:21:09.1060,0.211,-1.675,0.665,-9.66,10.01,-9.28,-0.89,0.35,3.65
2022-12-06 15:21:09.1160,0.15,-1.73,0.186,-9.67,10.29,-6.55,-1.17,1.17,4.1
2022-12-06 15:21:09.1260,-0.077,-1.88,-0.269,-9.22,11.32,-1.87,-1.17,1.17,4.1
2022-12-06 15:21:09.1350,-0.52,-1.961,-0.384,-6.84,13.11,2.2,0.01,1.21,3.8
2022-12-06 15:21:09.1460,-0.762,-1.91,-0.045,-2.74,14.1,2.62,0.18,0.86,3.28
2022-12-06 15:21:09.1550,-0.733,-1.792,0.32,-0.88,13.67,-1.08,-0.08,0.56,2.61
2022-12-06 15:21:09.1650,-0.482,-1.565,0.348,-1.56,12.72,-4.4,-0.15,0.55,1.86
2022-12-06 15:21:09.1760,-0.173,-1.106,0.01,-4.33,10.34,-4.29,-0.39,1.69,1.29
2022-12-06 15:21:09.1860,-0.033,-0.723,-0.597,-7.25,5.83,-0.77,-0.47,3.05,1.39
2022-12-06 15:21:09.1960,-0.416,-0.728,-1.109,-8.29,2.58,5.14,0.09,2.49,1.32
2022-12-06 15:21:09.2060,-1.108,-0.684,-0.724,-3.73,3.11,9.26,0.65,0.59,0.61
2022-12-06 15:21:09.2160,-1.284,-0.334,0.15,2.71,2.15,4.26,0.54,-1.55,-0.29
2022-12-06 15:21:09.2260,-0.915,-0.385,0.307,3.67,-1.16,-3.77,0.41,-1.88,-1.06
2022-12-06 15:21:09.2360,-0.395,-0.579,-0.129,-0.4,-0.22,-4.03,0.42,-1.41,-1.41
2022-12-06 15:21:09.2460,-0.207,-0.545,-0.473,-5.25,1.31,0.53,0.68,-0.99,-1.78
2022-12-06 15:21:09.2560,-0.376,-0.354,-0.501,-6.48,0.57,3.73,1.1,-0.94,-2.37
2022-12-06 15:21:09.2660,-0.529,-0.142,-0.254,-4.53,-1.66,3.67,1.4,-1.21,-2.96
2022-12-06 15:21:09.2760,-0.575,-0.043,-0.095,-3.07,-3.89,1.38,1.49,-1.33,-3.51
2022-12-06 15:21:09.2860,-0.61,-0.013,-0.043,-2.47,-5.05,0.15,1.54,-1.25,-4.02
2022-12-06 15:21:09.2950,-0.585,-0.042,-0.097,-1.95,-5.62,-0.01,1.64,-0.99,-4.46
2022-12-06 15:21:09.3060,-0.533,-0.123,-0.116,-2.01,-5.61,0.72,1.76,-0.75,-4.85
2022-12-06 15:21:09.3160,-0.5,-0.179,-0.068,-2.18,-5.19,0.98,1.81,-0.64,-5.2
2022-12-06 15:21:09.3260,-0.484,-0.217,-0.025,-2.15,-5.05,0.62,1.82,-0.5,-5.55
2022-12-06 15:21:09.3360,-0.443,-0.242,-0.056,-1.9,-5.08,0.44,1.84,-0.32,-5.82
2022-12-06 15:21:09.3460,-0.382,-0.26,-0.104,-1.93,-5.22,0.97,1.91,-0.21,-6.05
2022-12-06 15:21:09.3560,-0.344,-0.281,-0.128,-2.03,-5.39,1.58,2.0,-0.17,-6.26
2022-12-06 15:21:09.3660,-0.304,-0.31,-0.119,-1.87,-5.51,1.95,2.12,-0.21,-6.43
2022-12-06 15:21:09.3760,-0.255,-0.354,-0.094,-1.74,-5.51,2.03,2.25,-0.41,-6.56
2022-12-06 15:21:09.3860,-0.209,-0.429,-0.058,-1.64,-5.32,1.98,2.39,-0.73,-6.68
2022-12-06 15:21:09.3960,-0.167,-0.53,-0.035,-1.47,-4.76,1.88,2.51,-1.12,-6.78
2022-12-06 15:21:09.4060,-0.119,-0.668,-0.017,-1.25,-3.93,1.94,2.57,-1.5,-6.82
2022-12-06 15:21:09.4150,-0.104,-0.858,0.012,-1.04,-2.63,2.02,2.59,-1.87,-6.81
2022-12-06 15:21:09.4260,-0.154,-1.076,0.061,-0.43,-0.77,2.02,2.54,-2.19,-6.71
2022-12-06 15:21:09.4360,-0.254,-1.293,0.114,0.81,1.35,1.75,2.46,-2.39,-6.49
2022-12-06 15:21:09.4460,-0.406,-1.517,0.107,2.52,3.52,1.53,2.33,-2.53,-6.13
2022-12-06 15:21:09.4560,-0.566,-1.727,0.062,4.71,5.78,1.88,2.08,-2.59,-5.55
2022-12-06 15:21:09.4660,-0.725,-1.895,-0.037,6.82,7.93,2.54,1.77,-2.5,-4.83
2022-12-06 15:21:09.4760,-1.024,-1.911,-0.073,9.02,9.56,3.67,1.26,-2.22,-4.29
2022-12-06 15:21:09.4860,-1.452,-1.795,0.004,12.6,9.64,3.89,0.61,-1.87,-4.07
2022-12-06 15:21:09.4960,-1.756,-1.612,0.054,17.25,8.5,3.11,-0.1,-1.4,-3.83
2022-12-06 15:21:09.5060,-1.549,-1.45,-0.136,20.21,6.76,2.72,-0.52,-1.02,-3.02
2022-12-06 15:21:09.5160,-1.096,-1.324,-0.469,17.8,5.32,4.91,-0.71,-0.95,-1.62
2022-12-06 15:21:09.5260,-0.609,-1.186,-0.474,13.48,4.09,7.84,-0.96,-1.05,0.27
2022-12-06 15:21:09.5360,-0.416,-1.066,-0.323,8.76,2.73,7.34,-1.12,-0.86,1.94
2022-12-06 15:21:09.5460,-0.717,-0.92,-0.261,7.38,1.4,5.86,-1.27,-0.51,3.29
2022-12-06 15:21:09.5560,-1.183,-1.067,-0.083,10.45,-0.02,5.07,-1.33,-0.29,3.76
2022-12-06 15:21:09.5660,-1.312,-0.878,0.245,14.55,1.42,2.96,-0.23,-0.32,3.59
2022-12-06 15:21:09.5760,-0.73,-1.061,1.345,14.83,-0.89,-0.46,0.84,-1.74,0.9
2022-12-06 15:21:09.5860,0.162,-2.31,2.13,8.42,2.29,-12.72,0.17,5.26,-1.75
2022-12-06 15:21:09.5960,2.04,-2.681,0.717,-1.22,14.87,-16.95,0.51,6.57,1.9
2022-12-06 15:21:09.6060,1.538,-2.4,1.806,-19.97,16.67,-3.89,-1.58,5.52,4.6
2022-12-06 15:21:09.6160,-1.019,-2.052,1.629,-10.63,13.97,-16.45,-1.58,5.52,4.6
2022-12-06 15:21:09.6260,-2.094,-1.218,0.26,12.88,9.9,-11.53,-2.0,4.13,2.36
2022-12-06 15:21:09.6360,-1.845,-0.56,-0.353,21.38,1.34,1.0,-2.02,3.86,1.5
2022-12-06 15:21:09.6460,-0.78,-0.593,-0.695,17.04,-4.26,6.24,-1.88,3.26,1.45
2022-12-06 15:21:09.6560,-0.172,-0.549,-0.872,6.64,-3.75,9.18,-1.32,2.68,1.49
2022-12-06 15:21:09.6660,0.403,-0.667,-1.011,0.8,-4.2,10.78,-0.72,1.54,1.83
2022-12-06 15:21:09.6760,0.845,-0.85,-0.553,-5.1,-2.85,11.68,-1.01,-0.17,2.18
2022-12-06 15:21:09.6860,0.801,-1.069,0.138,-9.15,-1.04,6.23,-1.45,-1.85,2.38
2022-12-06 15:21:09.6960,0.482,-1.199,0.249,-8.37,1.12,-0.12,-1.62,-2.74,2.53
2022-12-06 15:21:09.7060,0.017,-1.017,0.269,-5.29,2.09,-0.89,-1.35,-2.91,2.63
2022-12-06 15:21:09.7160,-0.592,-0.701,0.237,-0.72,-0.05,-1.2,-0.97,-2.18,2.48
2022-12-06 15:21:09.7260,-1.196,-0.66,0.249,5.15,-2.97,-0.92,-0.88,-1.06,1.95
2022-12-06 15:21:09.7360,-1.564,-0.784,0.173,10.75,-2.98,-1.15,-0.83,0.06,1.37
2022-12-06 15:21:09.7460,-1.535,-0.852,-0.07,13.8,-1.78,-0.2,-0.58,1.1,0.85
2022-12-06 15:21:09.7560,-1.147,-0.904,-0.088,12.92,-1.16,2.04,-0.41,1.77,0.42
2022-12-06 15:21:09.7660,-0.683,-0.954,0.041,8.78,-0.64,1.78,-0.37,1.98,0.2
2022-12-06 15:21:09.7760,-0.258,-1.0,0.022,4.25,-0.16,0.54,-0.32,1.72,0.25
2022-12-06 15:21:09.7860,0.094,-1.043,-0.062,0.08,0.3,0.84,-0.29,1.08,0.41
2022-12-06 15:21:09.7960,0.321,-1.056,-0.008,-3.28,0.7,1.54,-0.41,0.19,0.64
2022-12-06 15:21:09.8060,0.364,-1.054,0.086,-5.39,0.8,0.78,-0.52,-0.56,0.86
2022-12-06 15:21:09.8160,0.209,-1.035,0.051,-5.62,0.79,-0.03,-0.54,-0.95,1.03
2022-12-06 15:21:09.8260,-0.023,-0.998,0.054,-4.02,0.58,0.33,-0.56,-1.04,1.12
2022-12-06 15:21:09.8360,-0.244,-0.972,0.077,-1.82,0.24,0.19,-0.56,-0.92,1.08
2022-12-06 15:21:09.8460,-0.41,-0.969,0.076,0.2,0.05,-0.03,-0.54,-0.7,0.97
2022-12-06 15:21:09.8560,-0.474,-0.982,0.084,1.64,0.05,-0.07,-0.53,-0.47,0.86
2022-12-06 15:21:09.8660,-0.424,-0.99,0.088,2.05,0.22,-0.18,-0.5,-0.28,0.81
2022-12-06 15:21:09.8760,-0.303,-0.99,0.078,1.35,0.28,-0.26,-0.45,-0.15,0.81
2022-12-06 15:21:09.8860,-0.211,-1.026,0.072,0.09,0.34,-0.17,-0.44,-0.09,0.84
2022-12-06 15:21:09.8960,-0.131,-1.056,0.061,-0.85,0.72,-0.17,-0.44,-0.17,0.92
2022-12-06 15:21:09.9060,-0.044,-1.077,0.054,-1.73,1.02,-0.07,-0.43,-0.31,1.05
2022-12-06 15:21:09.9160,0.047,-1.083,0.103,-2.7,1.26,-0.11,-0.43,-0.41,1.23
2022-12-06 15:21:09.9260,0.066,-1.087,0.156,-3.66,1.32,-0.63,-0.51,-0.51,1.38
2022-12-06 15:21:09.9360,0.021,-1.098,0.197,-3.86,1.44,-1.19,-0.56,-0.6,1.51
2022-12-06 15:21:09.9460,-0.028,-1.057,0.203,-3.53,1.54,-1.59,-0.56,-0.6,1.51
2022-12-06 15:21:09.9560,-0.066,-1.03,0.193,-3.21,1.16,-1.62,-0.61,-0.47,1.76
2022-12-06 15:21:09.9660,-0.064,-1.036,0.24,-3.02,1.02,-1.62,-0.62,-0.33,1.89
2022-12-06 15:21:09.9760,-0.042,-1.039,0.243,-3.26,1.15,-2.15,-0.6,-0.15,2.06
2022-12-06 15:21:09.9860,-0.048,-1.084,0.212,-3.65,1.27,-2.13,-0.61,-0.07,2.24
2022-12-06 15:21:09.9960,-0.052,-1.184,0.214,-3.77,1.89,-1.92,-0.65,-0.16,2.43
2022-12-06 15:21:10.0060,-0.002,-1.26,0.212,-3.98,3.0,-1.98,-0.7,-0.32,2.62
2022-12-06 15:21:10.0160,0.095,-1.24,0.314,-4.78,3.77,-2.09,-0.75,-0.53,2.87
2022-12-06 15:21:10.0260,0.138,-1.178,0.422,-5.99,3.61,-3.21,-0.75,-0.65,3.16
2022-12-06 15:21:10.0360,0.067,-1.144,0.484,-6.54,3.16,-4.25,-0.71,-0.63,3.4
2022-12-06 15:21:10.0460,-0.041,-1.132,0.473,-6.01,3.08,-4.8,-0.71,-0.63,3.4
2022-12-06 15:21:10.0560,-0.098,-1.102,0.425,-5.27,3.12,-4.65,-0.63,-0.49,3.59
2022-12-06 15:21:10.0660,-0.081,-1.164,0.407,-5.08,3.11,-4.21,-0.44,-0.2,3.78
2022-12-06 15:21:10.0760,-0.012,-1.323,0.417,-5.64,4.09,-4.09,-0.33,-0.19,3.88
2022-12-06 15:21:10.0860,0.033,-1.588,0.52,-6.59,6.03,-4.24,-0.36,-0.38,3.91
2022-12-06 15:21:10.0960,0.141,-1.779,0.739,-7.32,8.95,-5.46,-0.44,-0.62,3.92
2022-12-06 15:21:10.1060,0.314,-1.806,0.757,-8.77,10.86,-7.52,-0.47,-0.45,3.97
2022-12-06 15:21:10.1160,0.329,-1.838,0.592,-10.69,11.33,-7.38,-0.57,0.23,4.0
2022-12-06 15:21:10.1260,0.164,-1.888,0.366,-10.76,11.99,-5.72,-0.88,1.24,4.27
2022-12-06 15:21:10.1360,-0.039,-1.989,-0.006,-9.37,12.85,-3.57,-1.12,2.02,4.72
2022-12-06 15:21:10.1460,-0.559,-2.145,-0.327,-7.36,14.34,0.03,-0.93,2.14,4.37
2022-12-06 15:21:10.1560,-0.948,-2.179,-0.383,-2.23,16.17,2.63,-0.5,1.67,3.65
2022-12-06 15:21:10.1660,-0.906,-1.994,-0.217,0.89,16.57,2.76,-0.31,1.4,2.94
2022-12-06 15:21:10.1760,-0.507,-1.658,0.049,-0.11,14.74,0.72,-0.21,1.43,2.4
2022-12-06 15:21:10.1860,-0.133,-1.31,0.071,-4.39,11.6,-1.89,-0.01,1.69,1.95
2022-12-06 15:21:10.1960,-0.049,-0.858,-0.224,-7.77,8.27,-1.84,-0.12,2.54,1.75
2022-12-06 15:21:10.2060,-0.334,-0.62,-0.675,-8.28,3.99,1.16,-0.02,2.27,1.64
2022-12-06 15:21:10.2160,-0.972,-0.574,-0.64,-4.89,2.27,5.23,-0.02,2.27,1.64
2022-12-06 15:21:10.2260,-1.241,-0.246,-0.031,1.22,1.65,3.91,0.17,-1.27,0.35
2022-12-06 15:21:10.2360,-1.209,-0.184,0.172,3.31,-1.63,-2.0,0.04,-2.04,-0.48
2022-12-06 15:21:10.2460,-0.887,-0.406,-0.156,2.67,-1.7,-2.9,0.09,-1.95,-1.22
2022-12-06 15:21:10.2560,-0.559,-0.394,-0.368,-0.72,0.29,0.63,0.24,-1.53,-1.82
2022-12-06 15:21:10.2660,-0.522,-0.219,-0.366,-3.61,-0.36,2.55,0.52,-1.37,-2.52
2022-12-06 15:21:10.2760,-0.649,-0.058,-0.189,-3.53,-2.33,2.43,0.78,-1.43,-3.26
2022-12-06 15:21:10.2860,-0.69,0.076,-0.058,-2.17,-4.19,0.79,0.99,-1.4,-3.84
2022-12-06 15:21:10.2960,-0.651,0.189,0.033,-1.71,-5.8,-0.22,1.15,-1.31,-4.15
2022-12-06 15:21:10.3060,-0.634,0.21,0.058,-1.95,-7.23,-0.93,1.29,-1.08,-4.46
2022-12-06 15:21:10.3160,-0.659,0.068,0.044,-1.78,-7.6,-0.9,1.29,-0.81,-4.83
2022-12-06 15:21:10.3260,-0.65,-0.064,0.079,-1.27,-6.5,-0.68,1.22,-0.63,-5.24
2022-12-06 15:21:10.3360,-0.608,-0.137,0.07,-1.07,-5.7,-0.9,1.19,-0.51,-5.68
2022-12-06 15:21:10.3460,-0.521,-0.13,0.011,-1.14,-5.45,-0.62,1.19,-0.38,-6.02
2022-12-06 15:21:10.3560,-0.423,-0.086,-0.055,-1.63,-6.06,0.11,1.28,-0.28,-6.35
2022-12-06 15:21:10.3660,-0.362,-0.053,-0.083,-2.06,-6.86,0.83,1.44,-0.29,-6.67
2022-12-06 15:21:10.3760,-0.268,-0.044,-0.078,-2.14,-7.56,1.2,1.6,-0.4,-6.92
2022-12-06 15:21:10.3860,-0.185,-0.057,-0.037,-2.51,-7.99,1.27,1.76,-0.56,-7.03
2022-12-06 15:21:10.3960,-0.082,-0.121,0.051,-2.71,-8.14,0.99,1.91,-0.71,-7.0
2022-12-06 15:21:10.4060,0.034,-0.277,0.141,-3.13,-7.69,0.28,2.08,-0.85,-6.94
2022-12-06 15:21:10.4160,0.096,-0.497,0.163,-3.6,-6.26,-0.3,2.21,-1.15,-6.93
2022-12-06 15:21:10.4260,0.052,-0.766,0.222,-3.43,-4.22,-0.27,2.21,-1.72,-6.93
2022-12-06 15:21:10.4360,-0.104,-1.078,0.231,-2.17,-1.62,-0.62,2.12,-2.36,-6.8
2022-12-06 15:21:10.4460,-0.323,-1.344,0.168,0.16,1.37,-0.36,2.12,-2.36,-6.8
2022-12-06 15:21:10.4560,-0.551,-1.543,0.082,3.03,3.88,0.54,1.96,-3.32,-6.28
2022-12-06 15:21:10.4660,-0.734,-1.646,0.052,5.92,5.78,1.53,1.77,-3.3,-5.97
2022-12-06 15:21:10.4760,-0.781,-1.687,0.033,8.22,6.74,1.89,1.64,-2.9,-5.54
2022-12-06 15:21:10.4860,-0.751,-1.751,-0.08,9.1,7.25,2.32,1.54,-2.39,-4.98
2022-12-06 15:21:10.4960,-0.858,-1.76,-0.073,9.37,8.02,3.5,1.54,-2.39,-4.98
2022-12-06 15:21:10.5060,-1.174,-1.581,0.056,11.17,8.03,3.33,0.91,-1.37,-4.13
2022-12-06 15:21:10.5160,-1.409,-1.454,0.285,14.76,6.27,1.93,0.23,-0.77,-3.55
2022-12-06 15:21:10.5260,-1.433,-1.511,0.226,17.13,5.39,-0.24,-0.37,-0.51,-2.55
2022-12-06 15:21:10.5360,-1.106,-1.463,-0.188,17.32,6.1,0.87,-0.63,-0.67,-1.2
2022-12-06 15:21:10.5460,-0.444,-1.161,-0.413,13.61,5.26,4.91,-0.74,-0.84,0.64
2022-12-06 15:21:10.5560,-0.188,-0.965,-0.32,7.12,2.23,6.56,-0.81,-0.56,2.42
2022-12-06 15:21:10.5660,-0.605,-1.013,-0.162,5.29,0.36,5.38,-0.97,-0.33,3.43
2022-12-06 15:21:10.5760,-1.06,-1.078,0.118,9.58,1.16,3.61,-0.51,-0.01,3.8
2022-12-06 15:21:10.5860,-0.904,-1.007,0.65,13.27,1.2,0.88,0.12,-1.18,2.37
2022-12-06 15:21:10.5960,-0.12,-2.014,1.572,10.49,1.03,-5.62,-0.74,2.51,-0.84
2022-12-06 15:21:10.6060,1.448,-2.951,0.437,2.3,12.52,-12.81,0.16,5.74,0.86
2022-12-06 15:21:10.6160,1.966,-2.307,0.528,-14.16,19.28,-0.36,-0.43,5.08,3.94
2022-12-06 15:21:10.6260,-0.179,-2.109,1.57,-15.74,12.77,-4.58,-1.42,4.33,4.65
2022-12-06 15:21:10.6360,-1.734,-1.446,0.897,5.49,10.87,-12.9,-1.46,3.48,3.29
2022-12-06 15:21:10.6460,-1.916,-0.65,0.151,18.87,3.52,-5.3,-1.46,3.48,3.29
2022-12-06 15:21:10.6560,-0.923,-0.441,-0.078,18.44,-3.73,1.08,-1.9,3.06,1.48
2022-12-06 15:21:10.6660,-0.312,-0.447,-0.471,8.29,-5.34,3.06,-1.67,3.25,1.62
2022-12-06 15:21:10.6760,-0.078,-0.649,-0.826,2.76,-5.09,7.08,-0.96,2.44,2.08
2022-12-06 15:21:10.6860,-0.065,-0.945,-0.56,0.52,-2.99,9.88,-0.88,1.21,2.18
2022-12-06 15:21:10.6960,-0.067,-1.187,-0.09,0.33,0.02,6.51,-1.15,-0.29,2.08
2022-12-06 15:21:10.7060,0.024,-1.193,0.111,0.04,2.06,2.02,-1.52,-1.43,1.9
2022-12-06 15:21:10.7160,0.1,-1.095,0.091,-1.06,1.97,0.23,-1.53,-1.76,1.92
2022-12-06 15:21:10.7260,-0.003,-0.831,-0.024,-1.88,0.79,0.53,-1.18,-1.82,2.05
2022-12-06 15:21:10.7360,-0.437,-0.65,0.062,-0.64,-1.87,1.45,-1.18,-1.82,2.05
2022-12-06 15:21:10.7460,-0.922,-0.76,0.197,3.72,-3.32,0.25,-0.85,-0.44,1.63
2022-12-06 15:21:10.7560,-1.17,-0.913,0.112,8.14,-1.98,-0.9,-0.76,0.43,1.19
2022-12-06 15:21:10.7660,-1.106,-0.941,0.034,10.11,-0.6,-0.02,-0.67,1.01,0.81
2022-12-06 15:21:10.7760,-0.724,-0.915,0.036,8.95,-0.45,0.55,-0.63,1.32,0.61
2022-12-06 15:21:10.7860,-0.346,-0.941,-0.012,4.95,-0.67,0.43,-0.6,1.27,0.5
2022-12-06 15:21:10.7960,-0.102,-0.986,-0.095,1.35,-0.36,0.93,-0.53,0.93,0.51
2022-12-06 15:21:10.8060,0.064,-1.026,-0.1,-0.98,0.09,1.63,-0.49,0.41,0.65
2022-12-06 15:21:10.8160,0.138,-1.036,-0.06,-2.57,0.48,1.51,-0.49,0.41,0.65
2022-12-06 15:21:10.8260,0.145,-1.009,-0.042,-3.27,0.52,1.08,-0.49,-0.45,0.94
2022-12-06 15:21:10.8360,0.095,-0.977,-0.048,-3.37,0.25,0.92,-0.48,-0.65,1.04
2022-12-06 15:21:10.8460,-0.03,-0.965,-0.023,-2.89,-0.03,0.93,-0.47,-0.66,1.09
2022-12-06 15:21:10.8560,-0.181,-0.991,0.027,-1.69,-0.08,0.61,-0.48,-0.56,1.06
2022-12-06 15:21:10.8660,-0.31,-1.018,0.08,-0.31,0.22,0.06,-0.52,-0.4,0.98
2022-12-06 15:21:10.8760,-0.338,-1.029,0.101,0.8,0.49,-0.48,-0.51,-0.2,0.93
2022-12-06 15:21:10.8860,-0.24,-1.017,0.087,0.8,0.57,-0.66,-0.52,-0.1,0.95
2022-12-06 15:21:10.8960,-0.167,-1.028,0.072,-0.3,0.51,-0.57,-0.55,-0.12,0.97
2022-12-06 15:21:10.9060,-0.147,-1.026,0.041,-1.03,0.63,-0.46,-0.58,-0.26,1.01
2022-12-06 15:21:10.9160,-0.138,-1.022,0.011,-1.29,0.63,-0.19,-0.59,-0.42,1.07
2022-12-06 15:21:10.9260,-0.119,-1.028,-0.011,-1.49,0.62,0.05,-0.57,-0.53,1.13
2022-12-06 15:21:10.9360,-0.103,-1.05,0.0,-1.78,0.73,0.21,-0.57,-0.63,1.23
2022-12-06 15:21:10.9460,-0.091,-1.08,0.046,-2.05,1.0,0.0,-0.58,-0.7,1.34
2022-12-06 15:21:10.9560,-0.088,-1.103,0.104,-2.28,1.33,-0.48,-0.56,-0.72,1.44
2022-12-06 15:21:10.9660,-0.099,-1.116,0.183,-2.43,1.6,-1.12,-0.54,-0.6,1.55
2022-12-06 15:21:10.9760,-0.136,-1.152,0.287,-2.43,1.76,-1.95,-0.65,-0.49,1.65
2022-12-06 15:21:10.9860,-0.109,-1.152,0.295,-2.24,2.24,-3.0,-0.67,-0.28,1.76
2022-12-06 15:21:10.9960,-0.054,-1.026,0.246,-2.76,2.11,-2.94,-0.69,-0.01,1.94
2022-12-06 15:21:11.0060,-0.06,-0.994,0.194,-3.43,0.94,-2.59,-0.65,0.2,2.1
2022-12-06 15:21:11.0160,-0.109,-1.114,0.117,-3.48,0.93,-2.02,-0.71,0.22,2.21
2022-12-06 15:21:11.0260,-0.095,-1.231,0.145,-3.2,2.3,-1.5,-0.74,0.08,2.36
2022-12-06 15:21:11.0360,-0.001,-1.248,0.188,-3.69,3.44,-1.83,-0.77,-0.04,2.57
2022-12-06 15:21:11.0460,0.037,-1.238,0.306,-4.83,3.64,-2.46,-0.79,-0.16,2.8
2022-12-06 15:21:11.0560,0.015,-1.261,0.385,-5.34,3.71,-3.63,-0.8,-0.24,3.01
2022-12-06 15:21:11.0660,0.002,-1.297,0.443,-5.35,4.13,-4.47,-0.8,-0.25,3.18
2022-12-06 15:21:11.0760,0.038,-1.359,0.453,-5.54,4.68,-5.0,-0.81,-0.25,3.33
2022-12-06 15:21:11.0860,0.12,-1.43,0.505,-6.22,5.52,-5.16,-0.79,-0.35,3.51
2022-12-06 15:21:11.0960,0.23,-1.497,0.554,-7.37,6.4,-5.77,-0.67,-0.37,3.73
2022-12-06 15:21:11.1060,0.248,-1.634,0.566,-8.69,7.35,-6.18,-0.63,-0.44,3.87
2022-12-06 15:21:11.1160,0.185,-1.794,0.74,-8.97,9.05,-6.42,-0.76,-0.75,3.87
2022-12-06 15:21:11.1260,0.236,-1.805,0.906,-8.71,10.76,-8.32,-0.93,-1.01,3.8
2022-12-06 15:21:11.1360,0.27,-1.758,0.804,-9.57,10.99,-9.68,-1.13,-0.78,3.71
2022-12-06 15:21:11.1460,0.266,-1.748,0.497,-10.06,10.82,-8.39,-1.38,0.12,3.9
2022-12-06 15:21:11.1560,0.189,-1.85,0.062,-10.25,11.13,-5.27,-1.46,0.7,4.47
2022-12-06 15:21:11.1660,-0.13,-1.968,-0.137,-9.55,12.62,-1.19,-1.15,0.62,4.5
2022-12-06 15:21:11.1760,-0.58,-2.057,-0.096,-6.29,14.06,0.23,-0.73,0.25,3.9
2022-12-06 15:21:11.1870,-0.742,-1.987,0.025,-2.25,15.21,-0.34,-0.51,-0.01,3.11
2022-12-06 15:21:11.1960,-0.506,-1.674,0.16,-1.32,14.44,-1.68,-0.34,0.1,2.29
2022-12-06 15:21:11.2060,-0.198,-1.257,0.083,-4.07,11.37,-2.85,-0.26,0.93,1.62
2022-12-06 15:21:11.2160,-0.046,-0.817,-0.27,-6.97,7.34,-1.89,-0.34,2.25,1.45
2022-12-06 15:21:11.2260,-0.273,-0.688,-0.758,-8.26,3.3,1.71,-0.03,2.28,1.35
2022-12-06 15:21:11.2360,-0.985,-0.75,-0.749,-5.28,2.67,6.09,0.46,0.77,0.67
2022-12-06 15:21:11.2460,-1.42,-0.506,-0.059,1.75,3.05,4.98,0.46,0.77,0.67
2022-12-06 15:21:11.2560,-1.379,-0.419,0.309,5.39,0.47,-1.91,-0.12,-2.09,-1.05
2022-12-06 15:21:11.2660,-0.907,-0.525,-0.038,4.45,-0.06,-4.36,-0.1,-2.06,-1.66
2022-12-06 15:21:11.2760,-0.46,-0.442,-0.4,-0.47,0.74,-0.35,0.22,-1.77,-2.13
2022-12-06 15:21:11.2860,-0.411,-0.264,-0.429,-4.32,-0.51,3.02,0.69,-1.67,-2.74
2022-12-06 15:21:11.2960,-0.527,-0.089,-0.237,-4.32,-2.51,3.09,1.05,-1.8,-3.37
2022-12-06 15:21:11.3060,-0.583,0.035,-0.059,-3.01,-4.49,1.33,1.22,-1.79,-3.9
2022-12-06 15:21:11.3160,-0.578,0.117,-0.005,-2.38,-5.98,-0.09,1.36,-1.53,-4.31
2022-12-06 15:21:11.3260,-0.593,0.097,-0.044,-2.21,-7.07,-0.27,1.51,-1.13,-4.67
2022-12-06 15:21:11.3360,-0.638,-0.043,-0.079,-1.71,-7.03,0.35,1.61,-0.8,-5.04
2022-12-06 15:21:11.3460,-0.671,-0.141,-0.05,-0.95,-6.05,0.77,1.6,-0.63,-5.44
2022-12-06 15:21:11.3560,-0.652,-0.217,-0.014,-0.29,-5.51,0.59,1.54,-0.49,-5.84
2022-12-06 15:21:11.3660,-0.578,-0.216,-0.065,-0.12,-5.22,0.45,1.53,-0.31,-6.21
2022-12-06 15:21:11.3760,-0.478,-0.176,-0.12,-0.43,-5.69,1.15,1.55,-0.13,-6.56
2022-12-06 15:21:11.3860,-0.39,-0.131,-0.133,-0.88,-6.48,1.77,1.66,-0.01,-6.88
2022-12-06 15:21:11.3960,-0.292,-0.102,-0.165,-1.16,-7.26,2.03,1.66,-0.01,-6.88
2022-12-06 15:21:11.4060,-0.197,-0.136,-0.168,-1.51,-7.8,2.54,2.09,-0.12,-7.2
2022-12-06 15:21:11.4160,-0.128,-0.221,-0.073,-1.78,-7.65,2.64,2.27,-0.3,-7.23
2022-12-06 15:21:11.4260,-0.065,-0.387,-0.011,-1.77,-6.95,1.88,2.42,-0.52,-7.24
2022-12-06 15:21:11.4360,-0.028,-0.624,-0.019,-1.69,-5.37,1.62,2.61,-0.77,-7.26
2022-12-06 15:21:11.4460,-0.045,-0.907,-0.004,-1.3,-3.08,1.99,2.75,-1.17,-7.14
2022-12-06 15:21:11.4560,-0.186,-1.242,0.086,-0.32,-0.27,2.04,2.71,-1.81,-6.81
2022-12-06 15:21:11.4660,-0.436,-1.553,0.111,1.92,3.07,1.37,2.56,-2.38,-6.4
2022-12-06 15:21:11.4760,-0.642,-1.719,-0.025,5.09,6.08,1.58,2.42,-2.71,-5.91
2022-12-06 15:21:11.4860,-0.674,-1.786,-0.138,7.53,7.63,3.21,2.21,-2.56,-5.31
2022-12-06 15:21:11.4960,-0.753,-1.838,-0.138,8.29,8.37,4.34,1.9,-2.02,-4.73
2022-12-06 15:21:11.5060,-1.038,-1.885,-0.067,9.79,9.03,4.39,1.33,-1.59,-4.32
2022-12-06 15:21:11.5160,-1.421,-1.893,0.162,13.24,9.62,3.59,0.38,-1.15,-3.98
2022-12-06 15:21:11.5260,-1.668,-1.786,0.209,17.33,9.7,1.28,-0.45,-0.87,-3.45
2022-12-06 15:21:11.5360,-1.563,-1.536,-0.207,19.8,8.58,1.31,-0.69,-0.83,-2.43
2022-12-06 15:21:11.5460,-0.934,-1.209,-0.538,18.28,6.0,5.63,-0.79,-1.18,-0.74
2022-12-06 15:21:11.5560,-0.4,-0.991,-0.36,11.91,2.84,8.12,-0.94,-1.19,1.1
2022-12-06 15:21:11.5660,-0.372,-0.874,-0.255,7.13,0.81,6.03,-0.94,-1.19,1.1
2022-12-06 15:21:11.5760,-0.839,-0.821,-0.149,7.25,-0.41,5.03,-1.26,-0.27,3.8
2022-12-06 15:21:11.5860,-1.465,-1.039,-0.12,11.99,-0.93,3.84,-0.87,-0.2,4.04
2022-12-06 15:21:11.5960,-1.339,-0.858,0.696,17.48,1.38,3.35,0.35,-1.43,2.46
2022-12-06 15:21:11.6060,-0.436,-1.176,1.71,14.57,-1.34,-6.07,-0.2,2.39,-1.55
2022-12-06 15:21:11.6160,0.863,-2.755,1.044,5.8,4.29,-14.57,0.35,7.23,-1.49
2022-12-06 15:21:11.6260,2.422,-2.418,0.462,-8.53,18.71,-5.59,0.13,5.48,2.69
2022-12-06 15:21:11.6360,0.871,-1.72,2.21,-21.58,13.24,-3.68,-1.24,4.94,4.13
2022-12-06 15:21:11.6460,-1.017,-1.924,1.302,-4.11,7.63,-19.36,-1.24,4.94,4.13
2022-12-06 15:21:11.6560,-1.561,-1.474,0.173,12.5,9.44,-8.11,-1.68,3.7,1.8
2022-12-06 15:21:11.6660,-0.905,-0.949,-0.062,15.91,4.18,1.43,-2.06,3.27,1.54
2022-12-06 15:21:11.6760,-0.409,-0.697,-0.484,8.56,-0.55,3.3,-1.87,3.2,1.48
2022-12-06 15:21:11.6860,-0.193,-0.545,-0.931,4.24,-2.95,7.7,-0.97,2.85,1.65
2022-12-06 15:21:11.6960,0.167,-0.585,-0.864,1.69,-4.32,11.53,-0.5,1.98,2.03
2022-12-06 15:21:11.7060,0.283,-0.903,-0.313,-1.98,-3.54,10.14,-0.73,0.56,2.24
2022-12-06 15:21:11.7160,0.119,-1.095,0.125,-2.92,-0.38,4.34,-1.02,-0.84,2.16
2022-12-06 15:21:11.7260,-0.059,-1.138,0.183,-1.33,1.24,0.56,-1.17,-1.83,2.06
2022-12-06 15:21:11.7360,-0.217,-1.01,0.227,0.18,1.49,0.0,-1.17,-1.83,2.06
2022-12-06 15:21:11.7460,-0.427,-0.856,0.247,1.62,0.05,-0.5,-1.08,-1.79,1.92
