time,gFx,gFy,gFz,ax,ay,az,wx,wy,wz
2022-12-06 15:43:56.7850,-0.658,-0.701,-0.24,-0.16,-0.04,0.03,-0.01,0.02,0.01
2022-12-06 15:43:56.8010,-0.661,-0.69,-0.255,-0.22,0.07,0.04,-0.01,-0.01,0.02
2022-12-06 15:43:56.8070,-0.662,-0.671,-0.261,-0.2,-0.09,0.16,-0.01,-0.03,0.02
2022-12-06 15:43:56.8170,-0.67,-0.664,-0.263,-0.18,-0.25,0.2,-0.01,-0.04,0.03
2022-12-06 15:43:56.8280,-0.683,-0.677,-0.268,-0.08,-0.24,0.23,0.0,-0.02,0.02
2022-12-06 15:43:56.8380,-0.691,-0.694,-0.268,0.04,-0.07,0.27,0.0,0.01,0.01
2022-12-06 15:43:56.8490,-0.691,-0.7,-0.264,0.09,0.07,0.24,0.01,0.03,0.0
2022-12-06 15:43:56.8580,-0.691,-0.692,-0.262,0.07,0.07,0.21,0.02,0.04,-0.0
2022-12-06 15:43:56.8670,-0.695,-0.69,-0.252,0.1,-0.02,0.18,0.02,0.04,-0.0
2022-12-06 15:43:56.8790,-0.691,-0.697,-0.24,0.12,0.01,0.05,0.02,0.01,0.0
2022-12-06 15:43:56.8890,-0.677,-0.7,-0.231,0.05,0.08,-0.04,0.02,-0.0,0.01
2022-12-06 15:43:56.8990,-0.661,-0.697,-0.225,-0.11,0.07,-0.13,0.01,-0.02,0.02
2022-12-06 15:43:56.9090,-0.654,-0.691,-0.221,-0.25,0.03,-0.19,0.02,-0.02,0.03
2022-12-06 15:43:56.9190,-0.663,-0.684,-0.225,-0.26,-0.03,-0.19,0.02,-0.01,0.04
2022-12-06 15:43:56.9290,-0.684,-0.685,-0.235,-0.13,-0.07,-0.13,0.02,-0.01,0.04
2022-12-06 15:43:56.9390,-0.705,-0.691,-0.246,0.11,-0.04,-0.03,0.02,-0.02,0.03
2022-12-06 15:43:56.9490,-0.703,-0.701,-0.259,0.24,0.04,0.09,0.02,-0.01,0.02
2022-12-06 15:43:56.9580,-0.684,-0.702,-0.268,0.13,0.12,0.2,0.02,0.02,0.02
2022-12-06 15:43:56.9680,-0.672,-0.694,-0.275,-0.05,0.09,0.29,0.03,0.05,0.02
2022-12-06 15:43:56.9780,-0.67,-0.685,-0.276,-0.13,0.0,0.35,0.04,0.05,0.02
2022-12-06 15:43:56.9880,-0.671,-0.679,-0.269,-0.11,-0.09,0.33,0.04,0.05,0.03
2022-12-06 15:43:56.9990,-0.666,-0.684,-0.259,-0.13,-0.11,0.24,0.06,0.05,0.04
2022-12-06 15:43:57.0080,-0.663,-0.691,-0.247,-0.18,-0.04,0.14,0.08,0.05,0.04
2022-12-06 15:43:57.0180,-0.661,-0.69,-0.229,-0.2,0.0,0.0,0.08,0.01,0.02
2022-12-06 15:43:57.0280,-0.657,-0.693,-0.224,-0.25,-0.02,-0.16,0.08,-0.04,0.0
2022-12-06 15:43:57.0380,-0.676,-0.712,-0.236,-0.19,0.08,-0.11,0.09,-0.12,0.0
2022-12-06 15:43:57.0480,-0.698,-0.708,-0.233,0.0,0.23,-0.01,0.08,-0.18,-0.01
2022-12-06 15:43:57.0570,-0.718,-0.702,-0.22,0.24,0.12,-0.09,0.07,-0.2,-0.03
2022-12-06 15:43:57.0680,-0.701,-0.695,-0.222,0.33,0.08,-0.18,0.06,-0.19,-0.01
2022-12-06 15:43:57.0790,-0.663,-0.69,-0.232,0.02,0.0,-0.08,0.07,-0.17,0.02
2022-12-06 15:43:57.0890,-0.678,-0.702,-0.236,-0.25,0.0,0.02,0.08,-0.19,-0.01
2022-12-06 15:43:57.0980,-0.728,-0.719,-0.223,0.15,0.17,0.01,0.07,-0.12,-0.09
2022-12-06 15:43:57.1080,-0.719,-0.707,-0.225,0.47,0.25,-0.09,0.06,0.11,-0.11
2022-12-06 15:43:57.1180,-0.669,-0.658,-0.267,0.18,-0.02,0.08,0.07,0.23,-0.02
2022-12-06 15:43:57.1290,-0.667,-0.613,-0.287,-0.24,-0.59,0.49,0.1,0.18,0.05
2022-12-06 15:43:57.1390,-0.728,-0.641,-0.256,0.06,-0.79,0.5,0.13,0.02,-0.04
2022-12-06 15:43:57.1480,-0.744,-0.705,-0.205,0.61,-0.29,0.02,0.12,-0.04,-0.19
2022-12-06 15:43:57.1580,-0.684,-0.727,-0.201,0.46,0.23,-0.31,0.1,-0.07,-0.24
2022-12-06 15:43:57.1680,-0.589,-0.689,-0.196,-0.27,0.23,-0.18,0.06,-0.25,-0.09
2022-12-06 15:43:57.1780,-0.51,-0.633,-0.17,-1.26,-0.4,-0.48,0.06,-0.32,0.05
2022-12-06 15:43:57.1880,-0.541,-0.687,-0.201,-1.67,-0.56,-0.42,0.09,-0.34,0.08
2022-12-06 15:43:57.1980,-0.628,-0.725,-0.196,-1.06,0.13,-0.14,0.09,-0.33,0.1
2022-12-06 15:43:57.2100,-0.696,-0.672,-0.173,-0.25,0.12,-0.33,0.07,-0.35,0.15
2022-12-06 15:43:57.2180,-0.7,-0.622,-0.2,0.22,-0.47,-0.38,0.07,-0.35,0.15
2022-12-06 15:43:57.2290,-0.645,-0.584,-0.265,-0.04,-0.87,0.1,0.12,-0.25,0.36
2022-12-06 15:43:57.2390,-0.614,-0.546,-0.286,-0.62,-1.25,0.72,0.18,0.07,0.38
2022-12-06 15:43:57.2490,-0.731,-0.637,-0.355,-0.49,-1.28,0.94,0.26,0.16,0.27
2022-12-06 15:43:57.2590,-0.809,-0.706,-0.334,0.83,-0.11,1.54,0.26,0.16,0.27
2022-12-06 15:43:57.2700,-0.741,-0.637,-0.249,1.04,0.01,0.95,0.31,-0.06,0.34
2022-12-06 15:43:57.2800,-0.616,-0.587,-0.201,-0.06,-0.82,0.19,0.35,-0.1,0.34
2022-12-06 15:43:57.2890,-0.635,-0.719,-0.205,-1.01,-0.75,-0.02,0.4,-0.04,0.04
2022-12-06 15:43:57.2980,-0.702,-0.907,-0.226,-0.23,1.16,0.15,0.44,-0.15,-0.13
2022-12-06 15:43:57.3090,-0.58,-0.85,-0.199,-0.26,2.23,0.3,0.4,-0.35,0.0
2022-12-06 15:43:57.3180,-0.522,-0.686,-0.149,-1.54,1.03,-0.07,0.3,-0.77,0.17
2022-12-06 15:43:57.3290,-0.559,-0.624,-0.139,-1.71,-0.51,-0.48,0.33,-0.9,0.28
2022-12-06 15:43:57.3380,-0.649,-0.711,-0.198,-1.15,-0.3,-0.1,0.38,-0.84,0.26
2022-12-06 15:43:57.3480,-0.738,-0.719,-0.188,-0.22,0.31,0.32,0.36,-0.89,0.24
2022-12-06 15:43:57.3580,-0.714,-0.677,-0.186,0.35,0.26,0.31,0.26,-0.93,0.37
2022-12-06 15:43:57.3690,-0.69,-0.666,-0.2,-0.25,-0.27,0.37,0.18,-0.85,0.49
2022-12-06 15:43:57.3790,-0.775,-0.734,-0.265,-0.02,0.15,0.79,0.23,-0.72,0.51
2022-12-06 15:43:57.3890,-0.85,-0.732,-0.313,0.8,0.63,1.57,0.32,-0.55,0.43
2022-12-06 15:43:57.3980,-0.856,-0.697,-0.223,1.32,0.39,1.64,0.37,-0.29,0.41
2022-12-06 15:43:57.4090,-0.842,-0.725,-0.145,1.15,0.3,0.59,0.41,-0.04,0.44
2022-12-06 15:43:57.4190,-0.84,-0.768,-0.148,1.03,0.68,0.22,0.47,0.28,0.43
2022-12-06 15:43:57.4280,-0.851,-0.846,-0.175,1.09,1.3,0.39,0.59,0.57,0.44
2022-12-06 15:43:57.4380,-0.811,-0.786,-0.195,0.92,1.76,0.69,0.73,0.83,0.34
2022-12-06 15:43:57.4490,-0.843,-0.707,-0.157,0.78,0.78,0.71,0.82,0.84,0.11
2022-12-06 15:43:57.4590,-0.74,-0.741,-0.022,0.94,0.55,-0.01,0.75,0.62,0.18
2022-12-06 15:43:57.4680,-0.576,-0.657,0.155,-0.86,0.52,-1.52,0.26,0.04,0.26
2022-12-06 15:43:57.4780,-0.622,-0.706,0.514,-1.57,-0.08,-3.82,-0.7,-0.3,-0.1
2022-12-06 15:43:57.4880,-0.769,-0.857,0.569,-0.78,0.98,-7.19,-1.88,0.75,-1.15
2022-12-06 15:43:57.5000,-0.824,-1.018,0.329,0.95,2.7,-5.75,-2.66,1.78,-2.05
2022-12-06 15:43:57.5090,-0.228,-0.699,-0.178,-0.79,2.38,-3.73,-0.21,0.16,-1.27
2022-12-06 15:43:57.5180,-0.173,-0.586,-0.858,-5.8,-0.25,3.38,1.12,-1.42,0.08
2022-12-06 15:43:57.5300,-0.432,-0.238,-0.482,-4.42,-2.18,6.34,0.86,-1.01,1.05
2022-12-06 15:43:57.5400,-0.74,-0.065,-0.041,-1.65,-5.35,1.25,0.1,-0.08,1.16
2022-12-06 15:43:57.5490,-0.919,-0.264,-0.103,1.02,-5.7,-1.36,-0.05,-0.41,0.9
2022-12-06 15:43:57.5590,-1.029,-0.606,-0.419,2.19,-2.59,0.88,0.45,-1.17,0.41
2022-12-06 15:43:57.5680,-1.056,-0.745,-0.444,3.23,0.23,3.38,0.88,-1.71,0.09
2022-12-06 15:43:57.5780,-0.819,-0.599,-0.262,2.48,0.58,2.61,0.99,-1.43,0.09
2022-12-06 15:43:57.5880,-0.552,-0.46,-0.149,-0.41,-1.56,1.1,0.5,-1.0,0.13
2022-12-06 15:43:57.5990,-0.516,-0.681,-0.179,-2.26,-1.39,0.53,0.08,-0.7,0.27
2022-12-06 15:43:57.6080,-0.597,-0.827,-0.436,-2.02,0.94,1.82,0.29,-0.57,0.36
2022-12-06 15:43:57.6180,-0.721,-0.787,-0.487,-1.06,1.69,4.24,0.63,-0.92,0.27
2022-12-06 15:43:57.6290,-0.836,-0.632,-0.327,0.17,0.72,3.6,0.79,-1.24,0.05
2022-12-06 15:43:57.6380,-0.88,-0.565,-0.311,1.08,-0.71,2.47,0.92,-1.66,-0.25
2022-12-06 15:43:57.6490,-0.846,-0.653,-0.433,1.22,-0.74,3.13,1.19,-2.24,-0.5
2022-12-06 15:43:57.6600,-0.773,-0.756,-0.594,0.71,0.34,4.8,1.52,-2.82,-0.65
2022-12-06 15:43:57.6690,-0.685,-0.779,-0.72,-0.03,1.04,6.58,1.81,-3.3,-0.7
2022-12-06 15:43:57.6790,-0.593,-0.752,-0.793,-0.87,0.96,7.98,1.89,-3.64,-0.81
2022-12-06 15:43:57.6900,-0.504,-0.741,-0.802,-1.65,0.68,8.85,1.89,-3.72,-1.21
2022-12-06 15:43:57.6990,-0.336,-0.651,-0.821,-2.61,0.4,9.25,1.85,-3.74,-1.75
2022-12-06 15:43:57.7080,-0.067,-0.431,-0.769,-4.45,-1.1,9.84,2.09,-3.29,-1.98
2022-12-06 15:43:57.7200,0.175,-0.229,-0.384,-7.11,-3.52,8.73,2.36,-2.46,-1.83
2022-12-06 15:43:57.7300,0.092,-0.177,0.274,-8.36,-5.07,3.88,2.07,-2.84,-1.31
2022-12-06 15:43:57.7390,-0.199,-0.337,0.709,-6.15,-5.02,-2.16,0.74,-4.81,-0.89
2022-12-06 15:43:57.7490,-0.227,-0.951,0.381,-3.51,-2.02,-3.44,-0.31,-5.23,-1.18
2022-12-06 15:43:57.7600,0.048,-1.771,-0.162,-4.71,5.37,1.8,-0.92,-3.59,-2.48
2022-12-06 15:43:57.7680,0.082,-1.985,-0.518,-6.35,12.1,6.84,-1.12,-2.35,-3.93
2022-12-06 15:43:57.7790,0.153,-1.383,-0.48,-6.25,10.25,9.07,-1.4,-2.25,-4.18
2022-12-06 15:43:57.7880,0.091,-0.913,-0.269,-6.31,3.65,7.57,-1.81,-2.77,-3.95
2022-12-06 15:43:57.8000,-0.074,-0.754,-0.161,-4.73,0.15,5.76,-2.3,-3.04,-3.83
2022-12-06 15:43:57.8090,-0.235,-0.764,-0.169,-2.63,-0.93,5.1,-2.72,-2.76,-3.94
2022-12-06 15:43:57.8190,-0.352,-0.827,-0.25,-0.76,-0.7,5.42,-2.93,-2.35,-4.04
2022-12-06 15:43:57.8280,-0.425,-0.816,-0.285,0.64,-0.51,6.04,-2.98,-2.2,-3.99
2022-12-06 15:43:57.8380,-0.473,-0.757,-0.19,1.66,-1.1,5.72,-3.07,-2.23,-3.84
2022-12-06 15:43:57.8500,-0.509,-0.73,-0.041,2.5,-1.82,4.22,-3.25,-2.2,-3.65
2022-12-06 15:43:57.8590,-0.529,-0.752,0.039,3.2,-2.06,2.67,-3.38,-2.11,-3.42
2022-12-06 15:43:57.8700,-0.55,-0.793,0.05,3.75,-1.88,1.93,-3.42,-2.02,-3.13
2022-12-06 15:43:57.8790,-0.592,-0.799,0.055,4.37,-1.64,1.6,-3.42,-2.02,-3.13
2022-12-06 15:43:57.8890,-0.651,-0.738,0.067,5.17,-1.94,1.21,-3.33,-2.02,-2.49
2022-12-06 15:43:57.9000,-0.705,-0.653,0.085,6.06,-2.76,0.76,-3.2,-1.95,-2.18
2022-12-06 15:43:57.9090,-0.708,-0.595,0.11,6.68,-3.6,0.25,-3.03,-1.78,-1.82
2022-12-06 15:43:57.9190,-0.677,-0.576,0.119,6.75,-4.05,-0.26,-2.78,-1.59,-1.39
2022-12-06 15:43:57.9290,-0.624,-0.591,0.102,6.54,-4.13,-0.53,-2.46,-1.48,-0.97
2022-12-06 15:43:57.9390,-0.549,-0.637,0.092,6.04,-3.88,-0.58,-2.14,-1.51,-0.57
2022-12-06 15:43:57.9480,-0.465,-0.717,0.119,5.32,-3.31,-0.84,-1.89,-1.6,-0.16
2022-12-06 15:43:57.9590,-0.387,-0.823,0.15,4.52,-2.41,-1.36,-1.72,-1.69,0.29
2022-12-06 15:43:57.9690,-0.346,-0.93,0.153,3.84,-1.32,-1.77,-1.6,-1.72,0.72
2022-12-06 15:43:57.9790,-0.366,-1.009,0.124,3.57,-0.35,-1.83,-1.47,-1.64,1.05
2022-12-06 15:43:57.9890,-0.441,-1.053,0.071,3.9,0.29,-1.61,-1.26,-1.42,1.28
2022-12-06 15:43:57.9980,-0.535,-1.085,0.008,4.63,0.66,-1.15,-1.26,-1.42,1.28
2022-12-06 15:43:58.0090,-0.62,-1.116,-0.028,5.38,0.97,-0.7,-0.96,-1.11,1.43
2022-12-06 15:43:58.0190,-0.692,-1.174,-0.039,6.04,1.34,-0.52,-0.31,-0.88,1.24
2022-12-06 15:43:58.0290,-0.705,-1.268,0.013,6.46,2.07,-0.59,-0.31,-0.88,1.24
2022-12-06 15:43:58.0390,-0.629,-1.324,0.174,6.16,3.0,-1.49,0.12,-0.87,0.9
2022-12-06 15:43:58.0560,-0.415,-1.185,0.587,2.03,0.74,-9.01,0.46,-0.77,0.16
2022-12-06 15:43:58.0570,0.047,-0.854,1.198,2.03,0.74,-9.01,0.29,-1.21,0.02
2022-12-06 15:43:58.0670,0.811,-0.619,1.117,-3.6,-2.51,-13.27,0.36,-2.03,0.15
2022-12-06 15:43:58.0790,1.758,-0.587,0.529,-12.05,-4.0,-9.64,0.7,-3.13,0.53
2022-12-06 15:43:58.0880,2.7,-0.615,-0.043,-21.61,-3.85,-3.57,1.22,-3.96,0.71
2022-12-06 15:43:58.0990,3.211,-0.453,-0.25,-30.03,-4.04,1.29,1.72,-4.43,0.52
2022-12-06 15:43:58.1090,2.803,-0.183,0.052,-32.05,-6.35,1.52,2.01,-4.71,0.2
2022-12-06 15:43:58.1190,1.94,-0.053,0.453,-25.22,-8.69,-2.26,1.95,-4.94,-0.42
2022-12-06 15:43:58.1290,1.28,-0.615,0.557,-17.44,-8.91,-4.93,1.29,-1.97,-0.11
2022-12-06 15:43:58.1390,0.829,-6.143,0.127,-11.48,9.53,-4.04,1.69,0.09,2.19
2022-12-06 15:43:58.1490,-2.497,-8.175,2.043,-3.6,66.53,-4.46,-1.48,-3.3,-2.85
2022-12-06 15:43:58.1590,-6.436,-3.035,2.182,45.0,62.17,-23.6,-1.2,-4.91,-8.19
2022-12-06 15:43:58.1690,-3.015,4.671,1.877,56.59,-15.42,-23.15,-0.75,-2.17,-9.87
2022-12-06 15:43:58.1790,2.208,4.809,-2.24,9.94,-61.87,-2.77,1.25,-1.28,-6.93
2022-12-06 15:43:58.1890,4.312,3.299,-2.054,-32.73,-52.38,27.23,2.31,-0.95,-2.79
2022-12-06 15:43:58.1980,2.712,0.414,-0.072,-37.22,-31.89,12.86,1.29,-1.59,-0.2
2022-12-06 15:43:58.2080,1.823,-2.299,0.68,-18.47,-4.03,-3.25,1.3,-0.15,3.4
2022-12-06 15:43:58.2180,0.974,-4.812,0.684,-16.47,24.17,-5.39,0.63,-0.06,2.25
2022-12-06 15:43:58.2290,-2.335,-3.554,1.709,4.26,37.62,-9.32,-0.22,-1.76,-2.12
2022-12-06 15:43:58.2390,-2.71,-0.992,1.347,30.17,14.89,-16.57,-0.93,-2.84,-4.64
2022-12-06 15:43:58.2480,-1.098,0.203,0.387,23.27,-6.03,-9.18,-0.37,-2.96,-4.56
2022-12-06 15:43:58.2580,0.566,0.251,-0.572,6.92,-12.6,0.89,0.42,-1.28,-2.26
2022-12-06 15:43:58.2680,1.484,-0.472,-0.19,-7.78,-10.08,6.64,0.29,0.71,0.39
2022-12-06 15:43:58.2790,0.776,-1.499,0.711,-10.9,-0.7,-1.43,-0.23,0.95,0.4
2022-12-06 15:43:58.2880,-0.463,-1.805,0.786,0.12,7.49,-7.59,-0.54,0.41,-1.88
2022-12-06 15:43:58.2980,-0.492,-1.279,0.367,9.32,7.13,-5.83,-0.58,-0.25,-3.05
2022-12-06 15:43:58.3090,0.46,-0.701,0.045,4.75,0.63,-1.58,-0.53,-0.21,-2.38
2022-12-06 15:43:58.3180,1.127,-0.57,-0.055,-4.37,-3.22,0.59,-0.5,0.19,-1.2
2022-12-06 15:43:58.3290,1.074,-0.646,0.007,-8.2,-3.49,0.86,-0.51,0.26,-0.71
2022-12-06 15:43:58.3380,0.623,-0.888,0.035,-5.45,-2.07,0.07,-0.51,-0.03,-0.94
2022-12-06 15:43:58.3490,0.321,-1.112,-0.019,-1.05,0.6,0.13,-0.43,-0.23,-1.26
2022-12-06 15:43:58.3580,0.284,-1.088,-0.139,0.97,2.06,0.86,-0.36,-0.19,-1.38
2022-12-06 15:43:58.3690,0.383,-0.953,-0.193,0.79,1.11,1.95,-0.27,-0.08,-1.33
2022-12-06 15:43:58.3790,0.531,-0.976,-0.22,-0.3,0.21,2.17,-0.12,0.02,-1.2
2022-12-06 15:43:58.3890,0.67,-1.121,-0.181,-1.68,1.15,2.35,-0.03,0.0,-1.04
2022-12-06 15:43:58.3990,0.78,-1.261,-0.118,-2.82,2.67,1.66,0.08,-0.17,-0.9
2022-12-06 15:43:58.4080,0.885,-1.338,-0.144,-3.76,3.9,1.36,0.28,-0.3,-0.78
2022-12-06 15:43:58.4190,0.993,-1.389,-0.062,-4.76,4.47,1.63,0.41,-0.23,-0.53
2022-12-06 15:43:58.4280,1.026,-1.543,0.218,-5.61,5.24,-0.17,0.47,-0.26,-0.26
2022-12-06 15:43:58.4380,0.909,-1.886,0.363,-5.42,7.43,-2.57,0.48,-0.15,-0.12
2022-12-06 15:43:58.4490,0.57,-2.292,0.495,-3.52,11.33,-3.81,0.47,0.06,-0.19
2022-12-06 15:43:58.4580,0.059,-2.453,0.477,0.67,14.75,-4.66,0.58,0.36,-0.51
2022-12-06 15:43:58.4690,-0.354,-2.315,0.379,8.88,13.24,-2.87,0.69,0.54,-0.91
2022-12-06 15:43:58.4790,-0.526,-2.096,0.226,8.88,13.24,-2.87,0.91,0.48,-1.24
2022-12-06 15:43:58.4890,-0.509,-1.837,0.081,9.96,11.04,-0.91,0.97,0.58,-1.33
2022-12-06 15:43:58.4990,-0.443,-1.582,-0.021,9.47,8.5,0.06,1.12,0.98,-1.17
2022-12-06 15:43:58.5090,-0.366,-1.3,-0.27,9.0,6.03,2.03,1.11,1.26,-0.69
2022-12-06 15:43:58.5190,-0.389,-1.146,-0.232,8.33,3.49,3.74,0.92,1.23,-0.33
2022-12-06 15:43:58.5290,-0.603,-1.136,-0.059,9.41,2.75,2.94,0.7,0.94,-0.44
2022-12-06 15:43:58.5390,-0.834,-1.1,0.352,11.8,2.71,0.49,0.45,0.41,-1.06
2022-12-06 15:43:58.5500,-0.975,-0.999,0.648,13.84,2.17,-3.64,0.02,-0.43,-1.92
2022-12-06 15:43:58.5590,-1.05,-0.923,0.574,15.08,1.15,-5.23,-0.26,-1.48,-2.9
2022-12-06 15:43:58.5700,-1.101,-0.968,0.299,15.91,1.07,-3.42,-0.43,-1.91,-3.79
2022-12-06 15:43:58.5790,-1.236,-1.009,0.181,16.77,1.69,-1.21,-0.61,-1.35,-4.63
2022-12-06 15:43:58.5890,-1.611,-1.156,0.13,19.41,2.74,-0.67,-0.36,0.07,-5.45
2022-12-06 15:43:58.6000,-1.969,-1.241,0.069,23.72,4.43,-0.14,-0.16,1.17,-5.52
2022-12-06 15:43:58.6090,-2.083,-1.414,0.128,27.02,5.56,0.15,-0.5,0.57,-4.42
2022-12-06 15:43:58.6190,-1.841,-1.936,-0.004,27.09,8.89,-0.25,-0.59,-1.06,-3.42
2022-12-06 15:43:58.6290,-1.443,-2.134,-0.121,24.04,14.16,1.85,-0.34,-1.68,-2.86
2022-12-06 15:43:58.6390,-1.064,-1.899,0.294,20.3,14.09,0.85,-0.53,-1.66,-2.3
2022-12-06 15:43:58.6480,-0.78,-1.687,0.656,17.07,11.79,-4.13,-1.2,-1.77,-1.87
2022-12-06 15:43:58.6590,-0.523,-1.614,0.408,14.63,10.29,-5.89,-1.58,-1.93,-1.45
2022-12-06 15:43:58.6690,-0.241,-1.729,-0.118,12.12,10.35,-1.85,-1.18,-1.86,-0.76
2022-12-06 15:43:58.6780,0.036,-1.99,-0.388,9.33,12.23,2.45,-0.36,-1.7,-0.09
2022-12-06 15:43:58.6890,0.176,-2.174,-0.334,6.99,14.85,3.7,0.0,-1.44,-0.1
2022-12-06 15:43:58.6980,0.31,-2.087,-0.036,6.07,15.76,1.95,-0.24,-0.96,-0.48
2022-12-06 15:43:58.7080,0.777,-1.805,0.122,3.72,14.05,-1.14,-0.44,-0.38,-0.5
2022-12-06 15:43:58.7180,1.31,-1.49,-0.15,-1.67,10.99,-1.17,-0.37,0.38,-0.05
2022-12-06 15:43:58.7280,1.658,-1.185,-0.36,-6.24,8.01,2.05,-0.14,0.58,0.98
2022-12-06 15:43:58.7390,1.878,-0.85,-0.323,-9.12,4.87,2.97,-0.0,0.79,2.31
2022-12-06 15:43:58.7490,1.885,-0.685,-0.274,-10.75,1.73,2.59,-0.03,1.0,3.5
2022-12-06 15:43:58.7590,1.787,-0.653,-0.18,-10.36,0.63,1.91,-0.08,1.07,4.52
2022-12-06 15:43:58.7690,1.668,-0.607,-0.141,-9.58,-0.02,1.27,-0.08,1.06,5.4
2022-12-06 15:43:58.7790,1.551,-0.562,-0.079,-8.71,-0.85,0.98,-0.08,0.76,6.15
2022-12-06 15:43:58.7890,1.469,-0.477,0.023,-8.06,-1.84,0.22,-0.17,0.25,6.8
2022-12-06 15:43:58.8000,1.4,-0.387,0.123,-7.88,-3.16,-0.79,-0.33,-0.23,7.34
2022-12-06 15:43:58.8100,1.278,-0.283,0.181,-7.59,-4.51,-1.71,-0.53,-0.65,7.8
2022-12-06 15:43:58.8200,1.124,-0.178,0.142,-6.88,-5.98,-2.04,-0.64,-0.92,8.21
2022-12-06 15:43:58.8290,0.953,-0.077,-0.009,-5.96,-7.39,-1.31,-0.59,-0.98,8.58
2022-12-06 15:43:58.8400,0.797,0.006,-0.178,-5.09,-8.67,0.27,-0.41,-0.82,8.84
2022-12-06 15:43:58.8490,0.642,0.056,-0.354,-4.41,-9.67,1.82,-0.13,-0.3,8.94
2022-12-06 15:43:58.8590,0.474,0.069,-0.594,-3.71,-10.21,3.71,0.32,0.66,8.8
2022-12-06 15:43:58.8680,0.235,0.078,-0.871,-2.74,-10.44,6.29,0.88,2.15,8.37
2022-12-06 15:43:58.8790,-0.113,0.076,-1.045,-0.8,-10.6,8.99,1.53,3.88,7.65
2022-12-06 15:43:58.8890,-0.419,-0.01,-0.801,2.01,-10.37,9.65,2.05,4.92,6.8
2022-12-06 15:43:58.8990,-0.395,-0.294,0.027,3.4,-8.95,5.23,2.11,4.93,5.66
2022-12-06 15:43:58.9090,0.003,-0.975,0.937,1.12,-4.84,-3.99,1.4,4.32,3.85
2022-12-06 15:43:58.9190,0.784,-2.329,1.405,-4.51,4.07,-11.46,0.4,2.37,1.53
2022-12-06 15:43:58.9290,2.248,-3.486,1.384,-14.17,19.05,-14.24,0.4,2.37,1.53
2022-12-06 15:43:58.9400,4.288,-2.462,0.729,-32.23,23.78,-12.05,-0.86,-1.4,1.72
2022-12-06 15:43:58.9510,4.878,-0.352,-0.311,-49.39,6.45,-3.19,0.15,-1.1,2.34
2022-12-06 15:43:58.9590,3.162,0.283,-0.429,-46.18,-10.5,4.85,0.83,-1.58,1.17
2022-12-06 15:43:58.9690,1.472,-0.263,0.219,-26.37,-10.66,2.29,0.41,-2.41,-1.15
2022-12-06 15:43:58.9790,1.053,-0.609,0.754,-14.27,-4.89,-4.56,-0.32,-2.53,-2.96
2022-12-06 15:43:58.9890,1.754,-0.38,0.415,-14.43,-3.8,-7.04,-0.47,-2.2,-3.21
2022-12-06 15:43:58.9990,2.483,-0.14,-0.212,-23.19,-7.15,-1.08,-0.58,-1.98,-2.42
2022-12-06 15:43:59.0090,1.79,-0.596,-0.201,-25.44,-7.58,2.81,0.57,-1.42,-2.37
2022-12-06 15:43:59.0190,0.579,-2.144,0.163,-14.56,-0.02,1.46,1.53,1.57,-1.51
2022-12-06 15:43:59.0290,-0.03,-6.057,1.579,-5.04,23.52,-4.68,-0.51,-1.98,0.0
2022-12-06 15:43:59.0380,-2.694,-6.437,3.31,5.69,60.47,-23.03,-3.24,-3.72,-3.34
2022-12-06 15:43:59.0480,-3.944,-1.272,2.443,34.61,36.01,-32.17,-3.6,-3.71,-6.65
2022-12-06 15:43:59.0550,-1.778,1.525,-0.047,32.3,-12.23,-15.77,-2.89,-0.68,-7.6
2022-12-06 15:43:59.0680,0.712,1.798,-1.53,7.28,-27.02,8.35,-2.01,0.86,-6.47
2022-12-06 15:43:59.0800,1.903,1.423,-1.143,-12.18,-26.59,14.1,-0.93,1.74,-4.5
2022-12-06 15:43:59.0890,1.904,0.499,-0.211,-19.1,-21.0,7.43,-1.15,1.94,-3.12
2022-12-06 15:43:59.0990,1.165,-0.416,0.041,-14.36,-10.59,-1.34,-1.21,1.63,-2.73
2022-12-06 15:43:59.1090,0.884,-0.958,-0.479,-8.05,-3.37,0.8,-0.82,0.81,-2.88
2022-12-06 15:43:59.1190,0.941,-1.407,-0.336,-6.55,1.62,4.01,-0.86,0.14,-3.41
2022-12-06 15:43:59.1300,1.132,-1.616,-0.315,-7.5,5.57,1.4,-0.61,0.06,-3.73
2022-12-06 15:43:59.1400,1.266,-1.336,-0.586,-9.03,5.96,3.39,-0.42,0.11,-3.33
2022-12-06 15:43:59.1490,1.287,-1.008,-0.386,-9.54,2.35,3.94,-0.31,0.13,-2.66
2022-12-06 15:43:59.1590,1.219,-0.946,-0.91,-9.23,0.27,3.59,0.19,0.59,-2.18
2022-12-06 15:43:59.1680,0.726,-1.101,-0.755,-7.19,0.43,9.16,0.14,1.36,-1.91
2022-12-06 15:43:59.1790,0.821,-1.385,-0.056,-2.72,2.81,2.94,0.37,1.56,-1.73
2022-12-06 15:43:59.1890,0.952,-1.709,-0.295,-5.06,5.75,-0.07,0.69,1.53,-1.84
2022-12-06 15:43:59.1990,1.107,-2.152,-0.125,-5.5,9.31,2.23,0.92,1.39,-1.65
2022-12-06 15:43:59.2090,1.351,-2.731,0.213,-7.67,14.3,-1.15,1.13,0.64,-1.08
2022-12-06 15:43:59.2200,1.238,-3.154,0.312,-9.08,20.09,-3.0,1.29,0.26,-0.72
2022-12-06 15:43:59.2290,0.679,-3.052,0.591,-6.02,22.33,-4.49,1.37,0.28,-0.52
2022-12-06 15:43:59.2390,0.005,-2.763,0.599,0.3,20.17,-6.65,1.53,0.31,-0.46
2022-12-06 15:43:59.2490,-0.525,-2.426,0.513,6.71,17.25,-5.7,1.69,0.46,-0.49
2022-12-06 15:43:59.2590,-0.969,-2.162,0.215,11.44,14.02,-4.2,1.71,0.98,-0.56
2022-12-06 15:43:59.2690,-1.234,-1.839,0.091,15.19,11.49,-1.16,1.47,1.23,-0.75
2022-12-06 15:43:59.2790,-1.573,-1.593,0.212,17.91,8.21,-0.75,1.14,0.77,-1.23
2022-12-06 15:43:59.2890,-1.77,-1.581,0.454,21.28,6.87,-2.56,0.72,0.72,-1.83
2022-12-06 15:43:59.2980,-1.581,-1.348,0.336,22.04,6.71,-4.09,0.53,1.33,-2.25
2022-12-06 15:43:59.3090,-1.213,-0.83,-0.135,19.1,2.96,-0.95,0.85,2.18,-2.73
2022-12-06 15:43:59.3180,-1.138,-0.509,-0.206,16.52,-1.6,3.2,0.78,2.63,-3.1
2022-12-06 15:43:59.3280,-1.307,-0.476,0.07,17.07,-3.51,2.03,0.05,2.09,-3.23
2022-12-06 15:43:59.3380,-1.629,-0.74,0.071,19.58,-2.66,0.03,-0.86,-0.09,-3.45
2022-12-06 15:43:59.3490,-1.924,-1.305,-0.187,23.2,1.47,1.43,-0.94,-2.6,-4.11
2022-12-06 15:43:59.3590,-2.112,-1.675,-0.214,25.99,7.26,3.23,-0.59,-3.68,-4.86
2022-12-06 15:43:59.3680,-2.158,-1.699,-0.03,27.72,9.5,2.46,-0.65,-2.69,-4.91
2022-12-06 15:43:59.3790,-2.145,-1.694,0.288,28.17,9.79,-0.64,-0.73,-0.82,-4.29
2022-12-06 15:43:59.3880,-1.998,-1.647,0.381,28.04,10.12,-2.98,-1.3,0.37,-3.41
2022-12-06 15:43:59.3990,-1.839,-1.343,0.404,26.51,9.11,-3.8,-2.02,0.69,-3.16
2022-12-06 15:43:59.4090,-1.58,-1.06,0.092,25.1,5.85,-3.05,-2.17,0.24,-3.13
2022-12-06 15:43:59.4190,-1.155,-1.08,-0.371,21.97,4.36,0.96,-1.65,-0.24,-2.72
2022-12-06 15:43:59.4300,-0.706,-1.381,-0.632,17.8,5.89,4.85,-0.49,-0.56,-1.81
2022-12-06 15:43:59.4380,-0.229,-1.81,-0.68,13.4,9.76,6.5,0.99,-1.38,-0.85
2022-12-06 15:43:59.4500,0.142,-2.069,-0.414,8.92,13.76,5.97,0.99,-1.38,-0.85
2022-12-06 15:43:59.4590,0.363,-2.125,0.076,6.04,15.42,2.02,2.4,-0.71,-1.91
2022-12-06 15:43:59.4700,0.891,-1.854,0.577,3.7,15.39,-2.55,1.61,-0.17,-3.02
2022-12-06 15:43:59.4800,2.118,-1.058,0.896,-4.2,10.74,-7.82,0.22,1.45,-2.37
2022-12-06 15:43:59.4890,3.235,-0.504,0.568,-16.97,3.14,-8.05,-0.75,1.97,0.19
2022-12-06 15:43:59.4990,3.652,-0.185,0.004,-25.26,-0.86,-3.62,-0.67,1.19,3.41
2022-12-06 15:43:59.5090,3.374,0.109,-0.557,-27.23,-4.18,2.58,-0.08,0.32,5.76
2022-12-06 15:43:59.5190,2.653,0.235,-0.554,-22.22,-7.01,6.47,0.21,0.03,7.02
2022-12-06 15:43:59.5290,2.005,0.23,-0.245,-15.63,-8.15,4.58,0.2,-0.02,7.66
2022-12-06 15:43:59.5390,1.49,0.231,-0.092,-10.12,-8.6,1.8,0.19,-0.12,8.12
2022-12-06 15:43:59.5500,1.096,0.236,-0.104,-6.19,-9.26,1.17,0.21,-0.3,8.43
2022-12-06 15:43:59.5590,0.756,0.215,-0.074,-3.09,-9.77,1.27,0.19,-0.5,8.61
2022-12-06 15:43:59.5690,0.554,0.181,-0.089,-0.83,-9.99,0.88,0.24,-0.71,8.64
2022-12-06 15:43:59.5810,0.469,0.185,-0.234,-0.09,-10.21,1.51,0.45,-0.72,8.52
2022-12-06 15:43:59.5890,0.445,0.22,-0.418,-0.25,-10.78,3.27,0.68,-0.63,8.29
2022-12-06 15:43:59.5990,0.437,0.226,-0.557,-0.91,-11.47,4.88,0.91,-0.19,8.0
2022-12-06 15:43:59.6090,0.408,0.082,-0.699,-1.51,-11.31,6.38,1.16,1.11,7.69
2022-12-06 15:43:59.6190,0.321,-0.163,-0.734,-1.82,-9.55,7.6,1.3,2.85,7.42
2022-12-06 15:43:59.6290,0.165,-0.411,-0.661,-1.4,-7.19,7.69,1.37,4.29,7.15
2022-12-06 15:43:59.6390,-0.014,-0.682,-0.379,-0.49,-4.82,6.56,1.32,5.0,6.76
2022-12-06 15:43:59.6490,-0.137,-1.068,0.182,0.55,-1.84,2.84,0.92,4.27,5.97
2022-12-06 15:43:59.6590,0.01,-1.637,0.749,0.37,2.66,-3.04,0.12,2.54,4.44
2022-12-06 15:43:59.6690,0.675,-2.221,1.077,-3.21,8.69,-7.96,-0.87,1.18,2.66
2022-12-06 15:43:59.6790,2.026,-2.455,0.747,-12.47,13.7,-9.45,-1.01,0.62,2.15
2022-12-06 15:43:59.6890,3.457,-1.797,-0.061,-27.72,13.25,-3.43,-0.57,0.6,2.73
2022-12-06 15:43:59.6980,3.692,-0.696,-0.339,-38.73,3.84,3.11,-0.18,0.18,3.09
2022-12-06 15:43:59.7090,2.395,-0.241,-0.285,-35.19,-5.39,3.87,0.14,-1.11,2.07
2022-12-06 15:43:59.7180,1.111,-0.473,-0.057,-20.5,-6.61,3.04,0.14,-1.11,2.07
2022-12-06 15:43:59.7290,0.815,-0.654,0.316,-11.31,-3.75,-0.08,-0.38,-2.47,-1.49
2022-12-06 15:43:59.7380,1.372,-0.476,0.535,-11.94,-3.27,-3.4,-0.7,-1.95,-2.11
2022-12-06 15:43:59.7480,2.028,-0.103,0.407,-18.54,-6.14,-4.37,-0.68,-1.5,-1.9
2022-12-06 15:43:59.7570,2.239,0.153,0.145,-23.5,-9.76,-2.11,-0.32,-1.69,-1.38
2022-12-06 15:43:59.7670,1.727,0.013,0.273,-22.99,-11.11,-0.54,-0.73,-3.29,-1.04
2022-12-06 15:43:59.7770,0.893,-1.02,0.297,-15.62,-7.59,-2.83,0.04,-5.56,-2.52
2022-12-06 15:43:59.7870,0.349,-4.398,-0.025,-7.92,9.58,-0.24,0.69,-2.69,-3.77
2022-12-06 15:43:59.7970,-0.078,-7.903,1.29,-3.58,50.23,-1.47,-1.04,-3.27,-4.13
2022-12-06 15:43:59.8080,-1.082,-4.555,3.489,3.6,64.67,-19.29,-3.26,-7.55,-4.38
2022-12-06 15:43:59.8170,-1.51,0.242,3.007,12.12,12.34,-39.53,-5.21,-7.47,-4.99
2022-12-06 15:43:59.8270,-1.022,1.132,-2.329,15.7,-17.91,-10.19,-2.76,-1.66,-6.2
2022-12-06 15:43:59.8370,1.286,1.873,-2.802,2.48,-22.17,33.09,-1.28,3.08,-5.68
2022-12-06 15:43:59.8490,1.516,2.016,-0.174,-15.41,-32.05,16.0,-1.16,3.64,-4.65
2022-12-06 15:43:59.8610,0.814,0.297,-0.12,-9.94,-22.73,-1.09,-0.56,3.47,-3.99
2022-12-06 15:43:59.8700,0.579,-0.233,-0.541,-4.66,-9.48,2.77,-0.21,2.65,-4.06
2022-12-06 15:43:59.8790,0.694,-0.863,-0.342,-2.79,-5.63,5.28,-0.48,2.48,-4.35
2022-12-06 15:43:59.8890,1.614,-2.068,0.178,-6.33,3.24,0.82,-0.47,1.92,-4.25
2022-12-06 15:43:59.9000,2.752,-2.692,-0.24,-16.87,14.8,-1.95,0.15,0.99,-3.23
2022-12-06 15:43:59.9090,3.245,-2.256,-0.708,-26.25,16.56,5.49,0.09,0.43,-1.5
2022-12-06 15:43:59.9190,2.651,-1.583,-0.212,-26.89,10.5,5.04,0.2,0.14,-0.5
2022-12-06 15:43:59.9290,1.568,-1.297,-0.19,-18.07,4.85,1.21,0.7,0.28,-0.35
2022-12-06 15:43:59.9390,0.747,-1.8,-0.044,-7.93,4.46,2.13,1.2,1.25,-0.53
2022-12-06 15:43:59.9510,0.187,-3.07,0.582,-1.12,13.05,-1.81,1.63,1.58,-0.75
2022-12-06 15:43:59.9590,-0.463,-3.824,0.806,4.48,25.23,-6.79,1.43,0.85,-1.14
2022-12-06 15:43:59.9690,-1.199,-3.358,0.729,11.53,28.34,-7.29,1.3,0.22,-1.65
2022-12-06 15:43:59.9800,-1.482,-2.272,0.456,17.9,20.11,-6.05,1.42,0.02,-1.91
2022-12-06 15:43:59.9890,-1.328,-1.592,-0.032,18.69,10.51,-1.73,1.64,0.37,-2.02
2022-12-06 15:43:59.9990,-1.147,-1.268,-0.003,16.88,5.52,1.71,1.46,0.51,-2.02
2022-12-06 15:44:00.0090,-1.058,-1.227,0.274,15.8,3.48,0.03,1.46,0.51,-2.02
2022-12-06 15:44:00.0190,-0.979,-1.533,0.429,14.83,4.26,-2.54,0.27,-1.3,-1.73
2022-12-06 15:44:00.0290,-1.016,-2.016,-0.162,15.08,8.87,-1.91,0.51,-1.37,-2.92
2022-12-06 15:44:00.0380,-0.761,-1.671,-0.609,14.58,11.45,5.34,0.49,0.06,-3.75
2022-12-06 15:44:00.0480,-0.625,-0.955,-0.165,12.21,5.64,6.06,-0.25,1.84,-3.5
2022-12-06 15:44:00.0580,-1.008,-0.783,0.069,12.86,0.13,1.04,-1.23,2.55,-3.11
2022-12-06 15:44:00.0700,-1.629,-1.181,-0.16,18.12,1.17,1.3,-1.68,1.4,-3.12
2022-12-06 15:44:00.0790,-2.46,-1.556,-0.21,25.14,5.89,3.15,-1.65,-0.92,-3.67
2022-12-06 15:44:00.0890,-3.264,-1.598,-0.205,34.0,8.7,3.26,-1.43,-1.94,-4.29
2022-12-06 15:44:00.0990,-3.539,-1.412,-0.069,40.72,7.96,2.24,-1.22,-1.12,-4.47
2022-12-06 15:44:00.1080,-2.971,-1.419,-0.115,40.85,7.2,1.4,-1.27,0.11,-4.42
2022-12-06 15:44:00.1190,-2.101,-1.245,-0.035,33.25,7.27,1.58,-1.44,0.64,-4.55
2022-12-06 15:44:00.1280,-1.453,-1.033,0.108,25.85,5.38,0.3,-1.6,0.05,-4.48
2022-12-06 15:44:00.1380,-0.864,-0.869,0.287,20.08,3.91,-1.17,-1.84,-0.92,-3.81
2022-12-06 15:44:00.1490,-0.399,-0.927,0.218,14.76,2.93,-3.05,-1.64,-1.05,-2.77
2022-12-06 15:44:00.1590,-0.126,-1.407,-0.325,11.21,5.51,-0.15,-0.83,-1.25,-1.54
2022-12-06 15:44:00.1690,0.122,-1.979,-0.647,8.82,11.07,4.73,0.38,-2.35,-0.66
2022-12-06 15:44:00.1790,0.297,-2.399,-0.55,6.67,16.42,6.29,1.38,-2.4,-0.7
2022-12-06 15:44:00.1890,0.645,-2.325,0.134,4.74,19.41,3.31,1.2,-1.02,-1.36
2022-12-06 15:44:00.1990,1.213,-1.767,0.642,-0.05,15.98,-5.36,0.68,1.02,-2.27
2022-12-06 15:44:00.2090,1.894,-0.995,1.064,-4.9,10.69,-6.69,-0.67,1.97,-1.07
2022-12-06 15:44:00.2180,2.647,-0.391,1.161,-13.11,2.4,-12.62,-1.24,1.93,1.37
2022-12-06 15:44:00.2290,2.991,-0.12,0.52,-18.72,-1.5,-9.12,-1.12,0.95,4.01
2022-12-06 15:44:00.2380,3.082,0.135,0.074,-21.48,-4.66,-3.16,-0.98,0.18,6.15
2022-12-06 15:44:00.2490,2.873,0.117,-0.046,-21.32,-6.74,0.12,-1.06,-0.16,7.49
2022-12-06 15:44:00.2590,2.445,0.066,0.06,-19.08,-6.57,-0.02,-1.02,-0.61,8.28
2022-12-06 15:44:00.2690,1.789,0.103,0.026,-14.11,-7.1,-0.79,-0.73,-1.1,8.78
2022-12-06 15:44:00.2780,1.289,0.169,0.139,-8.62,-8.23,-0.69,-0.59,-1.42,9.13
2022-12-06 15:44:00.2890,0.946,0.219,0.325,-5.02,-9.48,-2.62,-0.61,-1.66,9.38
2022-12-06 15:44:00.2990,0.734,0.189,0.292,-2.89,-10.27,-3.98,-0.5,-1.79,9.53
2022-12-06 15:44:00.3090,0.611,0.094,0.031,-2.04,-10.14,-2.81,-0.15,-1.56,9.54
2022-12-06 15:44:00.3190,0.484,0.013,-0.261,-1.77,-9.6,0.05,0.24,-0.62,9.38
2022-12-06 15:44:00.3280,0.274,-0.071,-0.438,-1.17,-9.18,2.45,0.58,1.24,8.97
2022-12-06 15:44:00.3390,-0.065,-0.159,-0.661,0.5,-8.5,4.23,0.97,3.59,8.31
2022-12-06 15:44:00.3490,-0.458,-0.162,-0.888,3.4,-8.02,6.8,1.34,5.58,7.62
2022-12-06 15:44:00.3590,-0.807,-0.162,-0.834,6.38,-8.33,8.5,1.72,6.38,7.05
2022-12-06 15:44:00.3690,-0.952,-0.358,-0.282,8.77,-7.79,6.47,1.72,6.38,7.05
2022-12-06 15:44:00.3800,-0.678,-0.904,0.576,7.94,-4.76,-0.48,1.55,4.33,6.31
2022-12-06 15:44:00.3890,-0.166,-1.872,1.39,3.59,2.22,-8.79,0.53,2.55,4.82
2022-12-06 15:44:00.3990,0.839,-3.248,1.718,-2.94,13.5,-15.88,-0.36,0.17,3.23
2022-12-06 15:44:00.4090,2.78,-3.674,1.196,-16.96,26.29,-15.66,-1.0,-1.25,2.47
2022-12-06 15:44:00.4200,4.491,-1.888,0.249,-36.88,21.95,-8.69,-0.89,-0.95,3.13
2022-12-06 15:44:00.4290,4.741,0.011,-0.477,-50.58,0.84,0.89,-0.15,-1.32,3.83
2022-12-06 15:44:00.4390,2.736,0.293,-0.453,-43.66,-12.35,5.18,0.42,-2.3,2.9
2022-12-06 15:44:00.4490,0.957,-0.236,0.054,-22.6,-10.27,2.9,0.05,-3.16,0.68
2022-12-06 15:44:00.4590,0.203,-0.61,0.553,-8.95,-5.13,-2.67,-0.6,-3.28,-1.55
2022-12-06 15:44:00.4690,0.52,-0.542,0.583,-5.39,-2.85,-5.96,-0.89,-2.54,-2.76
2022-12-06 15:44:00.4790,1.531,-0.159,0.267,-11.69,-5.29,-4.68,-0.56,-1.8,-2.71
2022-12-06 15:44:00.4890,2.107,-0.098,-0.004,-21.38,-8.71,-1.07,-1.04,-2.03,-1.84
2022-12-06 15:44:00.4990,1.549,-1.072,-0.212,-22.23,-6.62,0.34,-1.04,-2.03,-1.84
2022-12-06 15:44:00.5090,0.871,-3.597,-0.316,-14.87,8.68,3.94,3.43,-2.94,-2.29
2022-12-06 15:44:00.5190,0.166,-6.693,1.46,-9.34,38.0,-0.61,0.53,-3.98,-3.0
2022-12-06 15:44:00.5290,-1.512,-6.482,4.096,2.31,61.01,-23.87,-6.64,-9.23,-4.64
2022-12-06 15:44:00.5390,-1.649,-2.682,5.038,16.04,41.87,-46.34,-6.33,-12.78,-6.67
2022-12-06 15:44:00.5490,-1.606,-0.057,-2.143,15.51,3.58,-33.6,-3.39,-1.16,-9.65
2022-12-06 15:44:00.5590,1.771,1.557,-4.522,6.98,-14.07,46.49,-2.91,3.7,-7.82
2022-12-06 15:44:00.5700,2.497,3.096,0.151,-26.45,-33.28,22.24,-2.56,4.43,-4.58
2022-12-06 15:44:00.5790,0.484,2.185,-0.524,-14.78,-38.33,-2.0,-1.78,4.69,-3.16
2022-12-06 15:44:00.5890,0.318,0.899,-0.631,-0.76,-26.18,4.73,-0.67,2.94,-2.79
2022-12-06 15:44:00.5980,0.597,0.004,-1.082,-2.28,-14.57,6.57,0.05,2.16,-2.93
2022-12-06 15:44:00.6090,1.024,-1.079,-0.611,-4.55,-6.44,9.91,-0.27,2.13,-3.42
2022-12-06 15:44:00.6190,2.23,-2.794,0.206,-11.11,7.52,0.87,-0.74,1.86,-4.11
2022-12-06 15:44:00.6290,3.636,-3.272,0.188,-24.18,22.17,-4.05,-0.39,0.54,-2.43
2022-12-06 15:44:00.6390,3.787,-2.333,-1.224,-35.65,20.29,1.13,0.49,0.28,-0.35
2022-12-06 15:44:00.6490,1.977,-1.221,-0.5,-28.35,9.45,12.72,-0.01,0.77,0.23
2022-12-06 15:44:00.6590,0.395,-0.867,0.312,-9.13,0.05,-2.57,0.78,1.22,-0.11
2022-12-06 15:44:00.6700,-0.538,-1.715,-0.136,3.3,1.28,-0.93,1.22,1.75,-1.07
2022-12-06 15:44:00.6800,-1.282,-2.997,0.724,11.67,12.62,-2.29,0.93,1.86,-2.11
2022-12-06 15:44:00.6890,-1.791,-3.307,0.609,18.54,23.27,-8.5,0.7,1.06,-2.74
2022-12-06 15:44:00.6990,-1.562,-2.195,0.38,21.58,20.28,-5.38,0.82,0.88,-3.01
2022-12-06 15:44:00.7090,-0.973,-1.298,0.021,17.25,8.5,-2.94,1.12,1.42,-3.08
2022-12-06 15:44:00.7190,-0.505,-0.938,-0.179,12.12,2.24,0.67,1.45,1.79,-2.87
2022-12-06 15:44:00.7290,-0.151,-0.919,-0.203,8.19,0.15,1.88,1.64,1.69,-2.5
2022-12-06 15:44:00.7390,0.049,-1.107,-0.241,5.44,1.03,2.3,1.61,1.03,-2.22
2022-12-06 15:44:00.7490,0.036,-1.505,-0.326,4.39,3.71,3.04,1.58,0.17,-2.3
2022-12-06 15:44:00.7590,-0.117,-1.895,-0.281,5.43,8.19,3.85,1.5,-0.16,-2.53
2022-12-06 15:44:00.7690,-0.29,-1.907,-0.113,7.22,11.06,2.8,1.14,-0.56,-2.72
2022-12-06 15:44:00.7790,-0.609,-1.594,0.012,9.49,9.77,1.37,0.43,-0.87,-3.02
2022-12-06 15:44:00.7890,-1.035,-1.411,0.101,13.48,6.83,0.22,-0.31,-0.35,-3.39
2022-12-06 15:44:00.7990,-1.443,-1.546,0.154,17.79,6.48,-0.48,-1.18,0.24,-3.63
2022-12-06 15:44:00.8090,-1.993,-1.747,0.162,22.43,8.62,-1.07,-1.94,-0.67,-3.45
2022-12-06 15:44:00.8190,-2.557,-1.798,-0.195,28.56,10.46,-0.25,-2.09,-2.01,-3.23
2022-12-06 15:44:00.8300,-2.903,-1.641,-0.419,33.52,10.37,3.59,-2.09,-2.01,-3.23
2022-12-06 15:44:00.8390,-2.911,-1.524,-0.307,36.37,8.76,3.74,-1.76,-1.84,-4.62
2022-12-06 15:44:00.8490,-2.263,-1.45,-0.13,34.26,8.49,2.05,-1.48,-0.45,-4.9
2022-12-06 15:44:00.8590,-1.531,-1.316,0.024,27.06,7.74,0.06,-1.37,-0.05,-4.73
2022-12-06 15:44:00.8690,-0.927,-1.243,0.073,20.81,7.0,-1.11,-1.64,-1.0,-4.17
2022-12-06 15:44:00.8790,-0.354,-1.366,-0.043,15.19,7.06,-1.41,-1.75,-1.9,-3.18
2022-12-06 15:44:00.8890,0.098,-1.799,-0.453,10.15,9.85,0.76,-1.18,-2.4,-1.88
2022-12-06 15:44:00.8990,0.486,-2.17,-0.721,5.93,14.74,4.69,-0.4,-2.34,-1.13
2022-12-06 15:44:00.9090,0.723,-2.142,-0.436,2.86,17.1,5.23,-0.4,-2.34,-1.13
2022-12-06 15:44:00.9190,0.852,-1.63,0.132,0.66,15.03,0.24,-0.03,-0.56,-1.33
2022-12-06 15:44:00.9290,1.403,-0.736,0.881,-0.58,8.86,-5.24,-0.43,1.66,-1.54
2022-12-06 15:44:00.9390,2.061,-0.242,0.848,-7.99,0.35,-11.05,-0.88,1.95,0.17
2022-12-06 15:44:00.9490,2.495,-0.096,0.595,-12.97,-2.36,-8.5,-1.21,1.35,2.53
2022-12-06 15:44:00.9590,2.863,-0.023,0.367,-17.3,-3.66,-6.23,-1.29,0.32,4.79
2022-12-06 15:44:00.9700,3.025,-0.045,0.202,-20.34,-4.43,-3.96,-1.37,-0.55,6.55
2022-12-06 15:44:00.9800,2.921,-0.026,0.287,-21.38,-4.52,-3.37,-1.47,-1.23,7.79
2022-12-06 15:44:00.9890,2.448,0.174,0.362,-19.49,-6.06,-4.68,-1.35,-1.87,8.72
2022-12-06 15:44:00.9990,1.779,0.346,0.447,-14.27,-8.77,-5.36,-1.34,-2.14,9.44
2022-12-06 15:44:01.0080,1.207,0.408,0.617,-8.47,-10.7,-6.96,-1.34,-2.14,9.44
2022-12-06 15:44:01.0170,0.808,0.358,0.57,-4.29,-11.47,-8.38,-1.58,-1.41,10.44
2022-12-06 15:44:01.0290,0.464,0.224,0.285,-1.62,-11.16,-7.04,-1.3,0.13,10.59
2022-12-06 15:44:01.0390,0.034,0.053,-0.04,1.06,-10.09,-4.07,-0.81,2.76,10.29
2022-12-06 15:44:01.0480,-0.55,-0.011,-0.272,5.01,-8.95,-1.03,-0.42,5.18,9.6
2022-12-06 15:44:01.0560,-1.092,0.052,-0.229,10.16,-9.27,0.5,-0.15,6.09,8.75
2022-12-06 15:44:01.0670,-1.274,-0.035,0.141,13.86,-9.85,-1.04,0.28,5.93,7.95
2022-12-06 15:44:01.0790,-0.913,-0.418,0.666,12.94,-8.07,-5.55,0.89,5.8,6.91
2022-12-06 15:44:01.0890,-0.345,-1.048,1.009,7.61,-3.42,-10.0,0.94,5.78,5.58
2022-12-06 15:44:01.0990,0.38,-1.999,1.523,1.26,3.7,-13.41,0.94,4.79,4.33
2022-12-06 15:44:01.1090,1.832,-3.287,1.525,-7.95,14.57,-18.3,-0.1,2.68,4.29
2022-12-06 15:44:01.1190,3.595,-3.12,0.684,-25.64,25.25,-13.86,-0.32,1.1,5.0
2022-12-06 15:44:01.1290,4.076,-1.024,0.153,-39.68,13.84,-6.38,0.45,0.78,5.74
2022-12-06 15:44:01.1390,3.015,0.111,-0.085,-39.25,-5.57,-1.94,0.45,0.78,5.74
2022-12-06 15:44:01.1490,1.343,-0.189,0.334,-25.05,-10.7,-1.84,1.48,-0.65,3.52
2022-12-06 15:44:01.1590,0.333,-0.991,1.07,-10.92,-4.62,-7.6,0.62,-0.89,1.08
2022-12-06 15:44:01.1690,0.027,-1.425,1.217,-3.78,2.72,-13.89,0.09,-1.07,-0.81
2022-12-06 15:44:01.1790,0.52,-1.109,0.511,-3.69,4.23,-11.25,-0.03,-1.26,-1.7
2022-12-06 15:44:01.1890,1.378,-0.524,0.052,-10.58,-0.8,-4.22,-0.21,-1.04,-2.04
2022-12-06 15:44:01.1990,1.971,-0.358,-0.219,-18.41,-5.63,-1.08,-0.58,-0.89,-2.09
2022-12-06 15:44:01.2090,2.066,-0.663,-0.589,-22.32,-5.18,1.91,-0.56,-0.88,-2.13
2022-12-06 15:44:01.2190,1.495,-1.196,-0.699,-20.74,-1.4,5.21,-0.95,-0.7,-2.76
2022-12-06 15:44:01.2290,0.579,-2.184,-0.56,-12.94,5.22,4.75,-0.58,-0.19,-4.16
2022-12-06 15:44:01.2390,0.131,-3.53,-0.166,-4.24,16.49,2.97,0.98,0.12,-5.09
2022-12-06 15:44:01.2490,-0.014,-4.071,0.924,-1.81,29.75,-2.77,0.83,-2.14,-5.58
2022-12-06 15:44:01.2590,-0.086,-1.544,2.977,0.72,23.24,-18.48,-2.18,-5.79,-5.17
2022-12-06 15:44:01.2680,0.133,-0.016,1.403,0.43,-2.98,-30.98,-3.6,-7.51,-4.31
2022-12-06 15:44:01.2790,1.092,0.094,-1.941,-2.94,-10.4,-1.77,-1.56,-4.34,-4.39
2022-12-06 15:44:01.2890,2.49,0.39,-1.572,-15.82,-10.94,20.59,-1.41,0.5,-4.0
2022-12-06 15:44:01.2990,2.084,0.433,0.053,-24.21,-14.5,5.11,-1.12,2.29,-3.16
2022-12-06 15:44:01.3090,0.816,-0.084,-0.247,-13.91,-11.74,-3.02,-0.85,2.87,-2.75
2022-12-06 15:44:01.3190,0.257,-0.484,-0.376,-3.2,-7.0,0.88,-0.74,2.15,-2.6
2022-12-06 15:44:01.3290,0.09,-1.102,-0.566,0.44,-2.52,1.65,-0.57,1.47,-2.77
2022-12-06 15:44:01.3390,0.009,-1.637,-0.427,2.07,4.15,3.35,-0.67,1.69,-3.32
2022-12-06 15:44:01.3490,0.331,-1.585,0.141,2.15,7.42,-0.65,-0.93,1.38,-3.87
2022-12-06 15:44:01.3590,0.968,-1.385,-0.245,-2.23,5.82,-4.11,-0.47,1.16,-3.88
2022-12-06 15:44:01.3690,1.659,-1.13,-1.065,-8.52,4.09,3.61,-0.08,1.23,-3.06
2022-12-06 15:44:01.3790,2.152,-0.855,-0.641,-14.57,1.22,7.4,-0.05,1.35,-1.7
2022-12-06 15:44:01.3890,2.195,-0.9,-0.628,-17.82,-0.38,2.55,0.28,1.16,-0.69
2022-12-06 15:44:01.3990,1.741,-1.163,-0.547,-16.07,1.12,4.31,0.49,0.99,-0.38
2022-12-06 15:44:01.4090,1.176,-1.563,-0.292,-10.66,4.18,1.64,0.8,1.11,-0.17
2022-12-06 15:44:01.4180,0.698,-2.212,-0.041,-5.41,8.9,0.05,0.77,1.17,-0.06
2022-12-06 15:44:01.4280,0.074,-2.76,0.231,-0.53,15.75,-3.16,0.78,1.07,-0.49
2022-12-06 15:44:01.4390,-0.637,-2.56,0.195,6.52,18.74,-4.36,0.8,1.1,-1.2
2022-12-06 15:44:01.4490,-0.926,-2.038,0.06,12.35,14.54,-3.48,0.88,1.46,-1.78
2022-12-06 15:44:01.4590,-0.901,-1.78,-0.174,13.9,10.3,-1.61,1.13,1.97,-2.1
2022-12-06 15:44:01.4690,-0.785,-1.683,-0.359,13.3,8.67,0.98,1.35,2.4,-2.3
2022-12-06 15:44:01.4790,-0.703,-1.579,-0.32,12.45,7.89,2.14,1.26,2.55,-2.36
2022-12-06 15:44:01.4890,-0.562,-1.509,-0.267,11.83,7.0,1.83,0.89,1.85,-2.23
2022-12-06 15:44:01.4990,-0.543,-1.586,-0.148,10.56,6.7,1.1,0.44,1.18,-2.47
2022-12-06 15:44:01.5100,-0.843,-1.788,-0.236,11.91,8.54,0.75,0.06,0.64,-3.08
2022-12-06 15:44:01.5190,-1.389,-1.725,-0.383,15.94,9.88,2.07,-0.14,0.3,-4.07
2022-12-06 15:44:01.5290,-1.988,-1.467,-0.259,22.31,8.58,3.12,-0.56,0.52,-5.15
2022-12-06 15:44:01.5400,-2.259,-1.474,0.174,27.47,6.53,0.13,-1.12,1.05,-5.89
2022-12-06 15:44:01.5510,-2.384,-2.005,0.153,29.81,9.35,-3.18,-1.35,0.63,-5.99
2022-12-06 15:44:01.5600,-2.227,-2.391,-0.139,30.66,15.14,-1.04,-1.21,-0.43,-5.74
2022-12-06 15:44:01.5700,-1.757,-2.485,-0.008,28.23,18.19,0.5,-1.31,-1.07,-5.6
2022-12-06 15:44:01.5790,-1.216,-2.41,0.327,23.15,18.79,-2.24,-1.75,-1.24,-5.46
2022-12-06 15:44:01.5890,-0.871,-2.297,0.384,18.92,18.25,-5.2,-2.06,-1.43,-5.14
2022-12-06 15:44:01.5990,-0.469,-2.27,0.038,15.79,17.75,-4.23,-2.03,-1.92,-4.45
2022-12-06 15:44:01.6100,-0.056,-2.521,-0.411,11.78,18.77,-0.46,-1.42,-2.78,-3.69
2022-12-06 15:44:01.6190,0.216,-2.892,-0.737,8.21,22.53,3.6,-0.63,-3.36,-3.67
2022-12-06 15:44:01.6280,0.527,-2.952,-0.572,6.01,25.82,4.99,-0.59,-2.53,-4.15
2022-12-06 15:44:01.6390,1.194,-2.265,0.097,1.68,24.45,1.0,-1.12,-1.6,-3.91
2022-12-06 15:44:01.6480,1.674,-1.124,0.48,-5.1,15.51,-6.05,-1.02,-1.05,-2.93
2022-12-06 15:44:01.6590,1.586,-0.273,0.313,-7.41,5.14,-7.07,-0.53,-0.88,-1.79
2022-12-06 15:44:01.6680,1.658,0.298,0.395,-6.16,-1.68,-6.03,-0.33,-1.0,-0.51
2022-12-06 15:44:01.6790,2.19,0.77,0.614,-8.67,-6.65,-7.82,-0.49,-1.37,1.26
2022-12-06 15:44:01.6890,2.931,1.057,0.506,-15.07,-11.0,-9.32,-0.58,-1.89,3.59
2022-12-06 15:44:01.6990,3.5,1.108,0.183,-22.41,-12.93,-7.22,-0.38,-2.75,6.12
2022-12-06 15:44:01.7090,3.347,1.193,-0.002,-26.13,-13.82,-4.41,-0.03,-3.56,8.18
2022-12-06 15:44:01.7190,2.37,1.253,0.088,-21.6,-15.44,-3.96,0.2,-3.75,9.47
2022-12-06 15:44:01.7290,1.328,1.229,0.264,-11.19,-16.39,-5.76,0.25,-3.49,10.29
2022-12-06 15:44:01.7390,0.649,1.18,0.28,-2.96,-16.81,-7.37,0.31,-2.8,10.77
2022-12-06 15:44:01.7490,0.186,1.151,0.119,2.06,-17.04,-6.95,0.55,-1.5,11.0
2022-12-06 15:44:01.7590,-0.173,1.271,-0.183,5.33,-17.84,-4.95,0.98,0.52,11.03
2022-12-06 15:44:01.7690,-0.602,1.538,-0.439,8.14,-20.39,-1.7,1.43,2.77,10.85
2022-12-06 15:44:01.7800,-1.155,1.646,-0.478,12.28,-23.43,0.16,1.83,4.13,10.45
2022-12-06 15:44:01.7890,-1.52,1.333,-0.387,16.75,-23.55,0.35,2.29,4.51,9.94
2022-12-06 15:44:01.7990,-1.537,0.711,-0.074,18.41,-19.49,-0.98,2.69,4.59,9.24
2022-12-06 15:44:01.8090,-1.229,0.067,0.326,16.63,-13.35,-4.29,2.84,4.62,8.3
2022-12-06 15:44:01.8210,-0.84,-0.487,0.585,12.39,-7.67,-7.54,2.63,4.78,7.14
2022-12-06 15:44:01.8280,-0.516,-1.057,0.718,8.24,-2.53,-9.12,2.26,4.83,5.89
2022-12-06 15:44:01.8400,0.109,-1.751,0.896,4.26,3.37,-10.19,1.87,4.67,5.27
2022-12-06 15:44:01.8500,1.33,-2.497,0.942,-4.71,10.35,-11.73,1.37,4.26,5.01
2022-12-06 15:44:01.8600,2.542,-3.098,0.936,-17.77,17.67,-10.93,0.11,2.67,4.94
2022-12-06 15:44:01.8700,3.741,-2.561,1.134,-29.6,20.53,-12.77,-0.61,0.36,5.36
2022-12-06 15:44:01.8800,4.576,-1.248,-0.059,-41.64,10.94,-10.55,0.42,-0.08,5.57
2022-12-06 15:44:01.8900,3.746,-0.287,-1.009,-45.99,-1.64,3.72,1.83,-0.11,4.88
2022-12-06 15:44:01.8990,1.65,-0.481,-0.396,-30.68,-7.29,6.82,2.06,0.04,3.02
2022-12-06 15:44:01.9090,0.37,-1.224,0.677,-12.66,-1.9,-1.92,1.04,0.1,0.51
2022-12-06 15:44:01.9190,-0.027,-1.536,1.306,-3.31,4.64,-11.62,0.11,-0.72,-1.44
2022-12-06 15:44:01.9290,0.753,-1.064,0.901,-3.5,4.65,-14.32,-0.15,-1.7,-2.5
2022-12-06 15:44:01.9400,2.214,-0.471,0.015,-14.56,-1.56,-7.19,-1.19,-1.69,-2.74
2022-12-06 15:44:01.9500,3.136,-0.773,-0.808,-28.38,-5.4,0.71,-2.23,-2.09,-2.97
2022-12-06 15:44:01.9590,2.158,-2.783,-1.912,-31.14,3.61,10.74,-0.77,-1.0,-3.87
2022-12-06 15:44:01.9700,0.611,-5.511,-1.154,-15.55,27.29,16.47,0.48,2.59,-3.46
2022-12-06 15:44:01.9790,-0.595,-6.456,0.543,-3.71,54.52,3.27,-0.59,0.68,-4.0
2022-12-06 15:44:01.9890,-1.933,-1.205,3.399,12.24,37.82,-16.14,-3.45,-5.0,-3.82
2022-12-06 15:44:01.9990,-2.229,1.271,1.288,20.14,-12.62,-38.8,-3.3,-5.36,-4.9
2022-12-06 15:44:02.0090,-0.747,1.251,-3.478,20.07,-22.45,7.93,-1.31,-0.36,-6.09
2022-12-06 15:44:02.0190,2.022,1.364,-1.298,-3.52,-22.08,29.13,-1.17,3.11,-5.34
2022-12-06 15:44:02.0290,2.079,0.674,0.33,-22.18,-21.33,-0.26,-0.86,3.15,-3.99
2022-12-06 15:44:02.0390,1.292,-0.058,-0.076,-14.92,-12.47,-5.22,-0.92,1.49,-3.11
2022-12-06 15:44:02.0570,1.369,-0.695,-0.588,-12.11,1.44,5.23,-0.51,0.84,-2.85
2022-12-06 15:44:02.0580,1.604,-1.71,-1.051,-12.11,1.44,5.23,-0.15,1.43,-2.83
2022-12-06 15:44:02.0680,1.532,-2.024,-0.317,-13.21,10.3,5.94,-0.48,0.97,-2.62
2022-12-06 15:44:02.0810,1.231,-1.574,0.197,-11.13,9.64,-3.31,-0.58,0.28,-2.51
2022-12-06 15:44:02.0890,1.115,-1.193,-0.631,-7.96,4.99,-2.89,0.01,0.19,-2.28
2022-12-06 15:44:02.0990,1.346,-0.965,-1.223,-8.37,2.07,6.56,0.4,0.68,-1.69
2022-12-06 15:44:02.1090,1.22,-0.974,-0.662,-9.76,0.37,7.88,0.35,1.22,-1.12
2022-12-06 15:44:02.1180,0.896,-1.365,-0.297,-7.04,2.04,1.4,0.59,1.34,-0.88
2022-12-06 15:44:02.1290,0.669,-1.959,-0.019,-4.08,6.82,-0.49,0.61,1.58,-0.95
2022-12-06 15:44:02.1390,0.457,-2.621,0.224,-1.85,13.15,-3.93,0.64,1.71,-1.0
2022-12-06 15:44:02.1490,0.214,-2.931,0.05,0.38,18.89,-4.4,0.71,1.41,-0.86
2022-12-06 15:44:02.1590,-0.123,-2.858,-0.021,3.23,20.28,-2.42,0.77,1.49,-0.85
2022-12-06 15:44:02.1690,-0.466,-2.551,-0.072,6.82,18.58,-2.11,0.85,1.84,-0.97
2022-12-06 15:44:02.1800,-0.723,-2.203,-0.216,9.99,15.21,-1.0,1.02,2.07,-1.11
2022-12-06 15:44:02.1890,-0.89,-1.925,-0.412,12.4,12.01,0.83,1.19,2.37,-1.2
2022-12-06 15:44:02.1990,-0.999,-1.773,-0.37,13.76,9.75,2.49,1.13,2.54,-1.44
2022-12-06 15:44:02.2110,-1.249,-1.881,-0.287,15.43,9.2,1.63,0.54,2.84,-1.9
2022-12-06 15:44:02.2210,-1.339,-1.494,0.094,17.97,9.69,0.43,-0.18,2.86,-2.28
2022-12-06 15:44:02.2290,-1.276,-0.847,0.254,18.14,3.75,-3.54,-0.42,2.52,-2.73
2022-12-06 15:44:02.2390,-1.342,-0.658,-0.171,18.03,-0.97,-2.51,-0.05,2.08,-3.47
2022-12-06 15:44:02.2490,-1.575,-0.748,-0.485,19.65,-1.22,2.37,0.28,2.43,-4.48
2022-12-06 15:44:02.2610,-1.871,-0.861,-0.154,22.71,0.18,3.37,0.01,3.05,-5.13
2022-12-06 15:44:02.2710,-1.978,-1.081,0.355,25.49,1.64,-1.38,-0.76,2.76,-4.81
2022-12-06 15:44:02.2810,-2.104,-1.54,0.27,26.61,5.25,-4.54,-1.47,0.68,-4.11
2022-12-06 15:44:02.2910,-2.2,-1.747,-0.137,28.48,9.77,-1.53,-1.64,-1.94,-3.85
2022-12-06 15:44:02.3000,-1.98,-1.768,-0.295,28.45,10.64,1.32,-1.45,-2.65,-4.05
2022-12-06 15:44:02.3090,-1.705,-1.936,-0.238,26.02,11.92,2.04,-1.06,-1.5,-4.25
2022-12-06 15:44:02.3190,-1.432,-2.011,0.073,23.68,13.7,0.08,-0.71,-0.46,-4.12
2022-12-06 15:44:02.3290,-1.004,-1.921,0.549,20.85,14.32,-3.5,-1.06,-1.32,-3.29
2022-12-06 15:44:02.3390,-0.415,-1.879,0.718,15.96,13.13,-8.72,-1.38,-1.95,-2.23
2022-12-06 15:44:02.3490,-0.052,-2.251,0.021,10.71,14.82,-6.46,-1.28,-2.49,-1.54
2022-12-06 15:44:02.3590,0.109,-2.565,-0.385,8.32,18.68,-0.18,-0.77,-1.78,-1.27
2022-12-06 15:44:02.3690,0.321,-2.542,-0.349,6.66,21.25,2.04,-0.59,-0.36,-1.46
2022-12-06 15:44:02.3800,0.749,-1.894,0.199,4.1,18.71,-0.45,-0.56,0.77,-1.32
2022-12-06 15:44:02.3880,1.256,-1.184,0.453,-0.8,11.52,-5.87,-0.34,1.78,-0.79
2022-12-06 15:44:02.3980,1.639,-0.608,0.518,-5.2,5.19,-6.65,-0.13,2.21,0.11
2022-12-06 15:44:02.4090,2.038,-0.215,0.644,-8.84,0.08,-7.53,-0.21,2.06,1.31
2022-12-06 15:44:02.4190,2.464,-0.028,0.867,-12.81,-2.96,-8.72,-0.75,1.05,2.92
2022-12-06 15:44:02.4290,3.079,0.109,0.882,-17.69,-4.82,-10.93,-1.38,0.15,5.01
2022-12-06 15:44:02.4400,3.565,0.031,0.415,-24.05,-5.76,-8.98,-1.51,-0.46,7.12
2022-12-06 15:44:02.4490,3.337,0.048,0.058,-27.17,-5.38,-4.12,-1.35,-0.96,8.72
2022-12-06 15:44:02.4590,2.394,0.281,0.134,-22.13,-7.12,-2.47,-1.18,-1.3,9.75
2022-12-06 15:44:02.4690,1.521,0.514,0.266,-12.99,-10.36,-4.04,-1.14,-1.42,10.32
2022-12-06 15:44:02.4790,0.918,0.583,0.242,-6.22,-12.74,-5.09,-0.96,-1.37,10.64
2022-12-06 15:44:02.4890,0.544,0.548,0.03,-2.06,-13.47,-4.17,-0.5,-0.79,10.71
2022-12-06 15:44:02.4990,0.259,0.53,-0.132,0.23,-13.6,-2.14,0.19,0.56,10.46
2022-12-06 15:44:02.5100,-0.08,0.561,-0.376,2.11,-14.04,-0.64,1.0,2.52,9.83
2022-12-06 15:44:02.5190,-0.618,0.607,-0.75,5.28,-14.81,2.71,1.69,4.23,8.83
2022-12-06 15:44:02.5300,-1.179,0.541,-0.833,10.28,-15.29,5.99,2.2,5.17,7.53
2022-12-06 15:44:02.5390,-1.296,0.224,-0.455,14.11,-13.99,5.37,2.8,5.57,6.52
2022-12-06 15:44:02.5490,-0.813,-0.292,0.328,12.22,-10.08,0.43,3.23,5.39,5.77
2022-12-06 15:44:02.5610,-0.17,-0.951,1.302,5.83,-4.74,-8.12,2.81,4.53,4.65
2022-12-06 15:44:02.5690,0.571,-2.351,2.206,-0.71,3.38,-17.15,1.39,1.93,3.12
2022-12-06 15:44:02.5790,2.65,-4.551,2.054,-11.36,21.76,-23.96,-0.6,-1.94,3.26
2022-12-06 15:44:02.5900,5.35,-3.516,0.782,-37.95,36.54,-16.96,-1.32,-3.02,5.1
2022-12-06 15:44:02.5990,5.432,-0.389,-0.573,-58.06,12.64,-3.01,0.24,-1.99,6.27
2022-12-06 15:44:02.6090,2.89,0.7,-0.96,-47.05,-12.58,7.43,1.85,-1.66,5.68
2022-12-06 15:44:02.6190,0.763,0.225,-0.431,-21.78,-15.72,7.54,1.69,-1.7,3.47
2022-12-06 15:44:02.6290,-0.613,-0.762,0.285,-4.5,-8.04,0.83,0.59,-1.46,0.42
2022-12-06 15:44:02.6390,-1.164,-1.355,0.355,6.32,1.11,-4.5,-0.04,-1.25,-2.19
2022-12-06 15:44:02.6490,-0.519,-1.364,-0.146,7.57,4.28,-2.06,-0.84,-1.38,-3.71
2022-12-06 15:44:02.6590,0.863,-1.308,-0.49,-1.94,3.7,2.53,-1.24,-0.77,-4.28
2022-12-06 15:44:02.6690,2.296,-1.12,-0.671,-16.39,2.71,5.38,-1.12,0.84,-4.22
2022-12-06 15:44:02.6800,2.387,-1.205,-0.449,-26.58,0.94,5.58,-0.78,1.57,-4.36
2022-12-06 15:44:02.6910,1.464,-1.959,0.084,-21.43,4.17,2.25,1.1,1.25,-5.01
2022-12-06 15:44:02.6990,0.874,-2.84,1.119,-12.42,13.24,-4.52,1.7,-0.01,-5.32
2022-12-06 15:44:02.7090,0.441,-2.22,2.807,-7.3,18.12,-17.42,-1.01,-3.27,-5.07
2022-12-06 15:44:02.7200,-0.054,-0.737,2.613,-2.21,6.17,-31.35,-3.54,-5.73,-4.59
2022-12-06 15:44:02.7300,-0.073,-0.119,-0.332,2.32,-6.01,-17.25,-3.63,-6.15,-4.55
2022-12-06 15:44:02.7390,1.11,-0.205,-2.432,-1.1,-8.42,13.15,-1.29,-2.18,-4.94
2022-12-06 15:44:02.7500,2.303,0.171,-0.708,-15.38,-8.24,19.44,-1.22,1.19,-4.07
2022-12-06 15:44:02.7590,1.837,0.322,0.24,-20.38,-12.58,-1.34,-1.52,3.11,-3.72
2022-12-06 15:44:02.7680,1.019,-0.035,-0.714,-12.52,-11.51,-1.67,-0.5,3.45,-3.57
2022-12-06 15:44:02.7790,0.511,-0.444,-1.396,-5.0,-7.52,9.67,-0.19,2.4,-3.23
2022-12-06 15:44:02.7900,0.297,-1.073,-0.54,-0.89,-2.76,10.25,-0.29,1.86,-3.25
2022-12-06 15:44:02.7990,0.381,-1.617,0.315,0.57,3.68,-0.59,-0.57,1.68,-3.93
2022-12-06 15:44:02.8100,0.873,-1.886,-0.614,-1.31,8.43,-3.35,0.43,1.6,-4.29
2022-12-06 15:44:02.8200,1.649,-1.568,-1.193,-7.18,9.12,9.43,0.54,1.41,-3.39
2022-12-06 15:44:02.8320,2.198,-1.28,-0.38,-14.23,5.22,7.09,0.7,0.95,-2.03
2022-12-06 15:44:02.8390,2.321,-1.432,-0.312,-17.75,4.14,1.72,1.13,0.33,-1.22
2022-12-06 15:44:02.8500,2.115,-1.921,-0.15,-17.54,7.0,1.91,1.47,0.3,-0.74
2022-12-06 15:44:02.8600,1.631,-2.757,0.543,-14.34,13.08,-1.85,1.53,0.11,-0.27
2022-12-06 15:44:02.8710,0.906,-3.532,0.601,-8.73,22.13,-7.35,1.68,-0.4,-0.01
2022-12-06 15:44:02.8800,-0.083,-3.388,0.651,-0.52,26.67,-6.22,1.6,-0.26,-0.33
2022-12-06 15:44:02.8900,-0.94,-2.862,0.66,9.34,22.93,-7.75,1.61,0.18,-0.9
2022-12-06 15:44:02.9000,-1.375,-2.284,0.219,16.29,17.6,-5.28,1.64,0.58,-1.28
2022-12-06 15:44:02.9100,-1.61,-1.826,0.022,19.63,12.04,-1.58,1.6,1.32,-1.52
2022-12-06 15:44:02.9200,-1.568,-1.539,-0.116,21.29,8.5,0.41,1.33,1.68,-1.54
2022-12-06 15:44:02.9290,-1.263,-1.409,0.103,19.71,6.05,0.82,0.57,1.34,-1.41
2022-12-06 15:44:02.9400,-1.224,-1.652,0.108,17.33,6.24,-1.54,0.26,0.64,-1.85
2022-12-06 15:44:02.9490,-1.098,-1.809,-0.358,17.75,9.33,0.9,0.54,0.53,-2.94
2022-12-06 15:44:02.9590,-0.549,-1.318,-0.378,14.65,8.65,4.71,0.37,1.63,-3.2
Time,-0.385,-0.777,-0.056,11.16,-0.81,0.51,-0.34,2.48,-2.59
2022-12-06 15:44:02.9780,-0.858,-0.685,-0.043,11.16,-0.81,0.51,-0.95,2.11,-2.02
2022-12-06 15:44:02.9890,-1.61,-1.07,-0.313,17.39,0.34,2.23,-1.01,0.9,-1.99
2022-12-06 15:44:02.9990,-2.83,-1.428,-0.291,26.1,5.0,4.19,-0.86,-1.46,-2.84
2022-12-06 15:44:03.0090,-4.277,-1.351,0.046,40.3,6.89,2.19,-0.67,-2.38,-4.23
2022-12-06 15:44:03.0200,-4.197,-1.383,0.114,51.12,6.17,-0.66,-0.73,-1.93,-4.68
2022-12-06 15:44:03.0280,-2.721,-1.543,0.217,43.63,7.78,-1.06,-1.16,-1.45,-4.45
2022-12-06 15:44:03.0400,-1.636,-1.463,0.264,29.42,8.93,-2.62,-1.53,-1.45,-4.19
2022-12-06 15:44:03.0490,-1.077,-1.377,0.078,21.59,8.01,-2.22,-1.56,-1.62,-3.75
2022-12-06 15:44:03.0580,-0.588,-1.498,-0.052,16.85,8.18,-0.55,-1.36,-1.6,-2.77
2022-12-06 15:44:03.0690,-0.179,-1.849,-0.115,12.35,10.46,0.11,-1.05,-1.7,-1.46
2022-12-06 15:44:03.0810,0.049,-2.336,-0.234,9.01,14.81,0.68,-0.53,-2.19,-0.6
2022-12-06 15:44:03.0890,0.089,-2.684,-0.313,7.55,19.5,1.76,-0.05,-1.95,-0.81
2022-12-06 15:44:03.1000,0.209,-2.613,-0.037,7.53,21.61,1.3,-0.0,-0.75,-1.39
2022-12-06 15:44:03.1100,0.871,-2.043,0.32,4.47,19.18,-2.55,0.05,0.32,-1.37
2022-12-06 15:44:03.1190,1.563,-1.383,0.035,-3.11,12.64,-4.46,0.59,1.96,-1.21
2022-12-06 15:44:03.1290,1.695,-0.832,-0.042,-7.02,7.37,1.15,0.69,1.4,-0.03
2022-12-06 15:44:03.1390,2.281,-0.211,0.548,-10.13,0.7,-3.84,0.86,1.1,1.66
2022-12-06 15:44:03.1500,2.798,0.117,0.45,-15.71,-3.9,-5.96,0.65,1.12,3.6
2022-12-06 15:44:03.1600,3.216,0.298,0.396,-20.86,-7.16,-5.0,0.35,1.21,5.56
2022-12-06 15:44:03.1690,3.257,0.223,0.135,-24.19,-8.24,-3.7,0.24,0.87,7.31
2022-12-06 15:44:03.1790,2.588,0.124,-0.024,-22.43,-7.73,-0.93,0.12,0.39,8.55
2022-12-06 15:44:03.1890,1.808,0.156,-0.003,-15.05,-7.76,-0.2,-0.17,0.06,9.35
2022-12-06 15:44:03.1990,1.221,0.251,-0.042,-8.76,-9.14,-0.44,-0.52,-0.14,9.9
2022-12-06 15:44:03.2090,0.844,0.291,-0.226,-4.45,-10.54,0.48,-0.5,-0.27,10.25
2022-12-06 15:44:03.2190,0.626,0.294,-0.438,-2.32,-11.26,2.52,-0.05,-0.04,10.31
2022-12-06 15:44:03.2290,0.452,0.374,-0.479,-1.32,-11.91,4.17,0.54,0.67,10.11
2022-12-06 15:44:03.2390,0.264,0.562,-0.309,-0.58,-13.53,3.76,1.11,1.36,9.63
2022-12-06 15:44:03.2500,-0.014,0.696,-0.1,0.69,-15.72,1.8,1.66,1.36,8.83
2022-12-06 15:44:03.2590,-0.258,0.498,-0.018,2.61,-16.36,0.32,2.2,1.18,7.86
2022-12-06 15:44:03.2690,-0.354,-0.166,0.022,3.81,-12.65,0.06,2.24,1.46,6.89
2022-12-06 15:44:03.2790,-0.153,-1.06,0.205,3.07,-5.07,-0.42,1.63,1.98,5.9
2022-12-06 15:44:03.2900,0.313,-1.986,0.343,-0.5,4.2,-2.42,1.06,2.41,5.03
2022-12-06 15:44:03.2990,1.164,-2.407,0.269,-6.93,12.08,-2.74,0.78,2.1,4.83
2022-12-06 15:44:03.3100,2.157,-2.323,0.187,-16.82,14.1,-1.62,0.54,1.13,4.91
2022-12-06 15:44:03.3210,2.775,-1.836,0.239,-26.18,11.8,-1.47,0.24,0.48,4.6
2022-12-06 15:44:03.3300,2.588,-1.399,-0.041,-30.31,6.57,-1.18,0.17,-0.22,3.67
2022-12-06 15:44:03.3400,1.698,-1.234,-0.236,-25.23,3.62,2.3,0.08,-0.9,2.35
2022-12-06 15:44:03.3490,1.103,-0.976,-0.009,-17.07,2.12,2.36,-0.3,-1.3,0.9
2022-12-06 15:44:03.3590,0.935,-0.62,0.053,-13.07,-0.96,0.05,-0.51,-1.3,-0.55
2022-12-06 15:44:03.3700,1.107,-0.291,-0.257,-12.69,-4.41,1.04,-0.5,-0.96,-1.75
2022-12-06 15:44:03.3800,1.556,-0.067,-0.424,-15.37,-7.45,4.23,-0.34,-0.72,-2.37
2022-12-06 15:44:03.3900,1.86,-0.162,-0.186,-19.95,-8.84,4.37,-0.82,-0.5,-2.28
2022-12-06 15:44:03.3990,1.388,-0.794,-0.01,-19.93,-6.31,1.02,-0.73,-1.44,-2.89
2022-12-06 15:44:03.4090,0.663,-2.179,-0.25,-13.42,2.43,1.9,0.33,-1.69,-4.68
2022-12-06 15:44:03.4190,0.206,-4.25,0.494,-6.15,18.89,1.44,2.69,-0.8,-6.09
2022-12-06 15:44:03.4280,0.077,-5.84,2.056,-3.11,40.31,-8.46,-0.61,-3.62,-6.46
2022-12-06 15:44:03.4400,-0.084,-3.123,4.422,-0.62,42.76,-28.51,-4.72,-7.79,-6.1
2022-12-06 15:44:03.4500,-0.378,-0.255,2.346,1.14,6.78,-43.45,-5.41,-8.18,-6.21
2022-12-06 15:44:03.4590,0.353,0.428,-3.172,4.77,-10.61,-1.45,-2.84,-3.43,-6.79
2022-12-06 15:44:03.4700,3.547,1.63,-3.081,-36.96,-30.13,15.21,-2.6,2.16,-4.99
2022-12-06 15:44:03.4800,2.899,2.113,-0.176,-36.96,-30.13,15.21,-1.75,2.76,-3.65
2022-12-06 15:44:03.4890,0.582,1.035,-0.411,-16.33,-26.68,0.88,-1.04,2.43,-3.62
2022-12-06 15:44:03.4990,0.076,0.259,-0.813,0.36,-16.35,4.0,-0.43,1.73,-4.04
2022-12-06 15:44:03.5100,0.302,-0.702,-1.194,1.62,-9.13,10.04,-0.45,2.54,-4.42
2022-12-06 15:44:03.5190,1.082,-1.991,-0.171,-1.97,2.59,8.23,-0.73,3.13,-4.56
2022-12-06 15:44:03.5290,1.914,-2.759,0.325,-10.18,14.26,-3.25,-0.06,2.3,-4.34
2022-12-06 15:44:03.5390,2.827,-2.535,-1.186,-17.81,18.28,1.31,0.38,1.2,-2.78
2022-12-06 15:44:03.5500,3.219,-1.932,-0.65,-26.14,14.04,11.62,0.44,0.49,-0.86
2022-12-06 15:44:03.5600,2.541,-1.546,-0.091,-25.39,8.25,2.57,1.02,0.03,0.14
2022-12-06 15:44:03.5700,1.608,-1.932,0.125,-16.99,6.69,0.21,1.31,0.72,0.26
2022-12-06 15:44:03.5790,0.641,-3.29,0.778,-7.85,14.64,-4.06,1.76,0.82,-0.22
2022-12-06 15:44:03.5900,-0.491,-4.051,0.757,2.25,27.75,-8.36,1.8,0.2,-1.13
2022-12-06 15:44:03.5980,-1.432,-3.642,0.965,13.42,30.88,-7.53,1.59,0.08,-1.83
2022-12-06 15:44:03.6110,-1.853,-2.46,0.88,20.74,23.08,-9.94,1.6,0.11,-2.22
2022-12-06 15:44:03.6200,-1.847,-1.513,0.412,23.83,11.63,-6.38,1.6,1.06,-2.06
2022-12-06 15:44:03.6300,-1.467,-1.085,0.262,21.72,4.26,-2.75,1.09,1.32,-1.55
2022-12-06 15:44:03.6400,-1.306,-1.18,0.196,18.87,2.15,-1.56,0.72,0.5,-1.16
2022-12-06 15:44:03.6500,-1.237,-1.639,0.119,17.67,4.84,-1.0,0.82,-0.14,-1.75
2022-12-06 15:44:03.6600,-1.202,-1.881,-0.112,17.79,9.51,0.35,0.83,-0.47,-2.96
2022-12-06 15:44:03.6680,-0.783,-1.532,-0.35,16.11,9.75,3.12,0.64,0.01,-3.48
2022-12-06 15:44:03.6800,-0.647,-1.072,-0.253,12.53,5.28,4.28,0.11,1.27,-3.22
2022-12-06 15:44:03.6900,-0.907,-1.05,-0.108,13.18,2.41,2.98,-0.9,2.37,-2.6
2022-12-06 15:44:03.7010,-1.355,-1.318,0.037,16.65,3.61,1.51,-1.6,2.04,-2.46
2022-12-06 15:44:03.7100,-2.051,-1.611,0.071,22.2,7.09,0.7,-1.72,0.32,-3.16
2022-12-06 15:44:03.7190,-2.707,-1.472,0.218,29.41,8.59,-0.14,-1.87,-1.41,-4.17
2022-12-06 15:44:03.7300,-3.024,-1.233,0.261,35.32,6.64,-1.79,-1.8,-1.91,-4.71
2022-12-06 15:44:03.7400,-2.768,-1.276,-0.013,36.74,5.42,-1.17,-1.6,-1.44,-4.46
2022-12-06 15:44:03.7500,-2.146,-1.342,-0.244,32.54,6.79,1.58,-1.51,-0.46,-4.12
2022-12-06 15:44:03.7580,-1.724,-1.263,-0.323,27.12,7.13,3.05,-1.49,0.3,-4.03
2022-12-06 15:44:03.7700,-1.372,-1.181,-0.302,23.72,6.49,3.34,-1.41,0.44,-3.99
2022-12-06 15:44:03.7800,-1.039,-1.212,-0.218,20.54,6.33,2.83,-1.25,0.19,-3.72
2022-12-06 15:44:03.7900,-0.692,-1.407,-0.09,17.44,7.55,1.8,-1.09,-0.56,-3.07
2022-12-06 15:44:03.8000,-0.31,-1.656,0.114,14.14,10.18,0.18,-0.81,-2.02,-2.03
2022-12-06 15:44:03.8100,0.084,-1.993,-0.064,10.29,12.83,-1.46,0.13,-2.78,-1.41
2022-12-06 15:44:03.8200,0.44,-2.234,-0.308,6.65,16.75,1.89,0.71,-2.0,-1.67
2022-12-06 15:44:03.8320,1.025,-1.926,0.087,2.88,17.16,1.11,1.15,0.24,-2.45
2022-12-06 15:44:03.8400,1.63,-1.359,0.205,-3.07,13.62,-0.98,0.28,0.99,-2.22
2022-12-06 15:44:03.8500,2.673,-0.301,0.88,-10.64,5.46,-5.85,-0.75,2.69,-0.29
2022-12-06 15:44:03.8610,3.337,0.11,0.504,-20.17,-2.88,-8.26,-0.88,2.76,2.69
2022-12-06 15:44:03.8700,3.533,0.298,0.108,-25.05,-5.65,-3.4,-0.47,1.9,5.59
2022-12-06 15:44:03.8800,3.058,0.352,-0.074,-24.82,-7.6,0.06,-0.44,0.91,7.41
2022-12-06 15:44:03.8900,2.33,0.268,0.148,-18.79,-8.09,0.46,-0.97,0.02,8.2
2022-12-06 15:44:03.8990,1.7,0.194,0.37,-12.25,-7.8,-2.53,-1.36,-0.76,8.59
2022-12-06 15:44:03.9090,1.26,0.21,0.254,-7.25,-8.07,-3.43,-1.38,-1.21,8.91
2022-12-06 15:44:03.9190,0.951,0.253,0.182,-4.1,-9.08,-2.25,-1.27,-1.4,9.24
2022-12-06 15:44:03.9300,0.751,0.262,0.141,-2.08,-10.03,-2.04,-1.06,-1.43,9.58
2022-12-06 15:44:03.9390,0.651,0.237,0.102,-1.32,-10.5,-1.74,-0.71,-1.49,9.84
2022-12-06 15:44:03.9490,0.549,0.207,-0.005,-1.24,-10.76,-1.46,-0.17,-1.36,9.92
2022-12-06 15:44:03.9590,0.419,0.164,-0.188,-0.99,-10.82,-0.01,0.47,-0.74,9.82
2022-12-06 15:44:03.9700,0.268,0.133,-0.326,-0.61,-10.81,1.6,1.09,0.4,9.55
2022-12-06 15:44:03.9760,-0.027,0.033,-0.526,0.36,-10.63,3.14,1.77,2.44,9.0
2022-12-06 15:44:03.9890,-0.444,-0.144,-0.729,2.97,-9.45,5.53,2.37,4.93,8.17
2022-12-06 15:44:04.0000,-0.862,-0.417,-0.676,6.42,-7.54,7.17,2.55,6.31,7.32
2022-12-06 15:44:04.0090,-1.084,-0.824,-0.146,9.31,-4.4,5.17,2.27,6.24,6.73
2022-12-06 15:44:04.0200,-0.918,-1.432,0.636,9.55,0.27,-0.98,1.62,4.23,6.0
2022-12-06 15:44:04.0300,-0.452,-2.386,1.444,5.99,7.37,-9.16,0.74,1.3,4.26
2022-12-06 15:44:04.0400,0.666,-3.603,1.849,-0.41,18.39,-15.8,-0.32,-1.61,2.41
2022-12-06 15:44:04.0490,3.072,-3.746,1.58,-42.06,22.26,-10.53,-1.17,-2.15,1.79
2022-12-06 15:44:04.0570,5.313,-1.84,0.066,-42.06,22.26,-10.53,-0.72,-1.07,2.85
2022-12-06 15:44:04.0680,5.139,0.348,-0.822,-58.53,-0.79,4.95,0.13,-1.29,3.47
2022-12-06 15:44:04.0810,2.493,0.549,-0.302,-44.3,-15.74,7.25,0.43,-2.68,2.03
2022-12-06 15:44:04.0900,0.754,-0.077,0.237,-19.56,-12.4,1.04,-0.21,-3.81,-0.78
2022-12-06 15:44:04.1000,0.553,-0.499,0.37,-8.11,-6.5,-2.78,-0.63,-3.27,-2.74
2022-12-06 15:44:04.1100,1.45,-0.51,0.139,-11.21,-4.05,-2.58,-0.75,-1.84,-2.74
2022-12-06 15:44:04.1200,1.834,-0.598,-0.047,-19.59,-4.54,0.34,-0.58,-2.46,-2.82
2022-12-06 15:44:04.1300,1.298,-1.843,-0.084,-19.22,-1.37,1.26,1.67,-2.84,-5.09
2022-12-06 15:44:04.1400,0.924,-4.763,0.355,-12.34,18.61,1.15,3.38,0.7,-5.62
2022-12-06 15:44:04.1500,0.613,-6.186,2.676,-10.27,45.84,-8.38,-1.85,-3.92,-4.29
2022-12-06 15:44:04.1600,-0.244,-3.587,4.803,-4.07,46.0,-36.11,-6.12,-8.76,-3.94
2022-12-06 15:44:04.1700,-1.416,-0.576,1.644,5.54,11.34,-43.17,-4.95,-9.42,-6.27
2022-12-06 15:44:04.1790,-0.724,0.137,-4.271,16.7,-8.13,9.47,-2.24,-2.0,-8.57
2022-12-06 15:44:04.1900,3.029,1.662,-1.98,-6.31,-14.3,43.75,-2.58,3.14,-6.66
2022-12-06 15:44:04.2000,2.663,2.768,0.284,-32.46,-33.26,2.8,-1.54,3.53,-4.8
2022-12-06 15:44:04.2090,0.902,1.566,-0.417,-16.42,-33.83,0.62,-0.95,3.07,-3.96
2022-12-06 15:44:04.2190,0.487,0.246,-0.783,-3.46,-19.27,3.77,-0.38,2.32,-3.77
2022-12-06 15:44:04.2300,0.635,-0.783,-1.353,-2.19,-8.17,10.67,-0.06,2.46,-4.0
2022-12-06 15:44:04.2390,1.125,-2.064,-0.051,-4.38,2.98,9.39,-0.41,2.39,-4.75
2022-12-06 15:44:04.2490,2.012,-2.983,0.374,-10.01,15.58,-4.03,0.15,1.71,-4.75
2022-12-06 15:44:04.2600,3.313,-2.579,-1.297,-20.42,20.24,1.16,0.93,0.91,-2.58
2022-12-06 15:44:04.2700,3.55,-1.88,-0.715,-31.02,13.67,13.93,0.94,0.37,-0.23
2022-12-06 15:44:04.2800,2.397,-1.674,0.19,-27.05,8.12,2.08,1.29,-0.16,0.53
2022-12-06 15:44:04.2890,1.075,-2.428,0.325,-14.01,9.15,-2.66,1.92,0.26,-0.21
2022-12-06 15:44:04.3000,-0.088,-3.701,0.832,-1.62,20.17,-4.1,2.16,0.19,-1.41
2022-12-06 15:44:04.3100,-0.92,-3.944,1.288,8.98,29.9,-10.43,1.8,-0.52,-2.05
2022-12-06 15:44:04.3190,-1.323,-3.148,0.98,15.55,28.08,-11.6,1.79,-0.52,-2.06
2022-12-06 15:44:04.3300,-1.549,-2.136,0.538,18.79,18.35,-7.35,1.89,0.08,-2.01
2022-12-06 15:44:04.3390,-1.656,-1.566,0.241,20.83,9.96,-3.1,1.76,1.01,-2.07
2022-12-06 15:44:04.3490,-1.54,-1.292,0.234,21.37,5.87,-1.22,1.29,1.09,-1.81
2022-12-06 15:44:04.3600,-1.311,-1.304,0.344,19.49,4.12,-1.48,0.76,0.14,-1.35
2022-12-06 15:44:04.3690,-1.236,-1.655,0.153,17.87,5.81,-2.24,0.91,-0.61,-1.55
2022-12-06 15:44:04.3800,-1.155,-1.821,-0.455,17.67,9.5,2.08,1.14,-0.17,-2.47
2022-12-06 15:44:04.3900,-0.89,-1.354,-0.357,16.21,8.89,6.45,0.75,1.08,-2.82
2022-12-06 15:44:04.4000,-0.772,-0.91,0.052,13.8,3.55,3.21,-0.42,2.3,-2.38
2022-12-06 15:44:04.4100,-1.148,-1.02,0.046,14.63,1.11,0.46,-1.56,1.84,-1.94
2022-12-06 15:44:04.4210,-1.684,-1.452,-0.155,19.45,4.27,2.03,-1.65,0.24,-2.33
2022-12-06 15:44:04.4300,-2.279,-1.511,-0.053,25.0,7.77,2.95,-1.6,-0.94,-3.35
2022-12-06 15:44:04.4400,-2.839,-1.341,0.08,31.34,7.05,1.16,-1.58,-1.23,-4.15
2022-12-06 15:44:04.4500,-2.845,-1.261,0.01,35.58,5.93,0.36,-1.49,-0.87,-4.17
2022-12-06 15:44:04.4600,-2.42,-1.2,-0.156,33.82,5.58,1.53,-1.54,-0.34,-3.89
2022-12-06 15:44:04.4700,-1.972,-1.124,-0.213,29.45,5.28,2.66,-1.64,0.4,-3.94
2022-12-06 15:44:04.4800,-1.596,-0.97,-0.275,25.65,4.49,3.03,-1.61,1.04,-4.06
2022-12-06 15:44:04.4900,-1.248,-0.889,-0.288,22.3,3.37,3.58,-1.43,1.18,-3.98
2022-12-06 15:44:04.4990,-0.889,-0.935,-0.219,19.14,3.36,3.34,-1.16,0.68,-3.55
2022-12-06 15:44:04.5110,-0.486,-1.112,-0.084,15.64,4.59,2.53,-0.86,-0.76,-2.54
2022-12-06 15:44:04.5210,-0.026,-1.451,0.061,11.61,6.99,0.65,-0.12,-2.28,-1.16
2022-12-06 15:44:04.5300,0.33,-1.95,-0.19,7.29,11.42,0.54,0.88,-3.16,-0.5
2022-12-06 15:44:04.5400,0.557,-2.128,-0.118,4.51,15.67,2.66,1.14,-2.05,-1.02
2022-12-06 15:44:04.5500,1.097,-1.877,0.288,1.72,15.73,-0.68,1.08,0.31,-2.27
2022-12-06 15:44:04.5600,1.745,-1.22,0.497,-3.74,12.66,-1.97,-0.23,1.2,-1.83
2022-12-06 15:44:04.5690,2.978,-0.26,0.916,-12.88,3.43,-7.86,-0.99,2.39,0.56
2022-12-06 15:44:04.5800,3.66,-0.006,0.279,-23.58,-3.03,-6.62,-0.76,1.76,3.83
2022-12-06 15:44:04.5900,3.788,0.218,-0.232,-28.43,-5.2,0.01,-0.38,0.76,6.61
2022-12-06 15:44:04.5990,3.109,0.375,-0.158,-27.16,-7.97,3.41,-0.6,-0.05,8.07
2022-12-06 15:44:04.6100,2.121,0.301,0.176,-18.8,-9.28,0.65,-0.87,-0.68,8.64
2022-12-06 15:44:04.6190,1.328,0.182,0.307,-10.13,-8.8,-1.88,-1.02,-1.3,8.82
2022-12-06 15:44:04.6300,0.806,0.079,0.368,-3.85,-8.36,-3.1,-1.0,-1.73,9.02
2022-12-06 15:44:04.6400,0.528,0.014,0.172,-0.46,-8.01,-3.1,-0.66,-1.71,9.19
2022-12-06 15:44:04.6500,0.322,0.0,-0.07,1.16,-8.15,-0.63,-0.1,-1.41,9.24
2022-12-06 15:44:04.6600,0.183,0.002,0.0,2.24,-8.56,0.67,0.4,-0.92,9.11
2022-12-06 15:44:04.6700,0.148,-0.021,0.162,2.41,-9.01,-0.91,0.4,-0.92,9.11
2022-12-06 15:44:04.6800,0.183,-0.243,0.051,1.63,-8.56,-1.68,0.99,1.3,8.35
2022-12-06 15:44:04.6900,0.202,-0.607,-0.209,0.41,-5.82,0.5,1.24,2.95,7.83
2022-12-06 15:44:04.7000,0.12,-0.891,-0.27,-0.22,-2.53,2.74,1.3,4.45,7.25
2022-12-06 15:44:04.7100,-0.026,-1.038,-0.102,0.23,-0.35,2.6,1.1,5.39,6.85
2022-12-06 15:44:04.7200,-0.023,-1.109,0.302,0.7,0.66,0.23,0.78,4.66,6.84
2022-12-06 15:44:04.7300,0.224,-1.338,0.744,-0.95,1.6,-4.2,0.6,2.64,6.58
2022-12-06 15:44:04.7400,0.662,-1.871,0.929,-4.81,5.09,-7.73,0.14,0.66,5.38
2022-12-06 15:44:04.7500,1.336,-2.386,0.858,-10.37,10.92,-8.54,-0.41,-0.53,3.62
2022-12-06 15:44:04.7560,2.326,-2.208,0.535,-18.65,14.31,-7.08,-0.43,-0.55,2.83
2022-12-06 15:44:04.7690,3.122,-1.348,-0.221,-28.82,9.36,-2.18,0.06,-0.43,2.91
2022-12-06 15:44:04.7800,2.766,-0.576,-0.449,-33.74,0.48,4.73,0.33,-1.05,2.48
2022-12-06 15:44:04.7890,1.693,-0.438,-0.015,-26.06,-5.01,3.6,0.04,-1.82,0.97
2022-12-06 15:44:04.8000,1.107,-0.654,0.106,-16.69,-4.24,-0.27,-0.29,-2.42,-0.82
2022-12-06 15:44:04.8100,1.278,-0.623,-0.032,-13.6,-2.57,0.26,-0.48,-2.51,-1.83
2022-12-06 15:44:04.8200,1.923,-0.36,0.122,-17.64,-4.21,0.85,-0.66,-2.06,-1.8
2022-12-06 15:44:04.8300,2.041,-0.31,0.357,-23.0,-6.44,-1.48,-0.81,-2.12,-1.62
2022-12-06 15:44:04.8420,1.55,-0.689,0.113,-20.94,-5.68,-2.44,-0.23,-3.42,-3.14
2022-12-06 15:44:04.8520,1.178,-1.954,0.237,-15.63,0.54,0.15,2.07,-4.44,-6.07
2022-12-06 15:44:04.8610,1.049,-3.452,0.979,-12.59,15.8,-3.39,2.07,-4.44,-6.07
2022-12-06 15:44:04.8710,1.306,-4.411,2.848,-11.71,28.4,-13.6,-1.58,-3.95,-4.22
2022-12-06 15:44:04.8810,0.672,-3.22,3.916,-13.07,32.58,-33.85,-6.6,-8.67,-2.94
2022-12-06 15:44:04.8900,-0.939,-1.473,0.625,-0.81,13.58,-32.07,-4.94,-9.53,-5.85
2022-12-06 15:44:04.9000,-0.363,-0.694,-4.437,12.28,2.09,16.77,-1.76,-2.43,-7.87
2022-12-06 15:44:04.9100,2.622,1.189,-1.911,-6.87,-8.79,43.3,-1.61,2.83,-6.0
2022-12-06 15:44:04.9200,2.292,2.176,0.932,-27.0,-27.23,2.27,-1.65,4.68,-4.17
2022-12-06 15:44:04.9290,0.611,1.579,-0.344,-13.54,-29.96,-7.71,-0.29,4.13,-3.4
2022-12-06 15:44:04.9390,-0.035,0.407,-1.659,0.32,-20.83,10.14,-0.29,4.13,-3.4
2022-12-06 15:44:04.9500,0.275,-0.942,-0.413,3.21,-8.69,14.71,-0.41,2.34,-3.66
2022-12-06 15:44:04.9610,1.267,-2.412,0.363,-2.58,5.47,-2.78,0.23,3.14,-4.19
2022-12-06 15:44:04.9690,2.403,-3.371,-0.796,-12.97,19.16,1.77,0.33,2.12,-3.95
2022-12-06 15:44:04.9810,3.387,-3.131,-0.249,-23.63,24.69,6.4,0.69,0.17,-1.74
2022-12-06 15:44:04.9900,3.349,-2.23,-0.319,-30.45,18.67,2.44,1.26,-0.69,0.19
2022-12-06 15:44:05.0000,2.221,-1.856,0.233,-25.29,10.53,2.66,1.26,-0.69,0.19
2022-12-06 15:44:05.0110,0.726,-2.537,0.978,-12.19,10.72,-5.62,2.03,0.92,0.1
2022-12-06 15:44:05.0200,-0.674,-3.516,0.935,2.42,20.13,-9.03,2.3,0.57,-1.16
2022-12-06 15:44:05.0300,-1.731,-3.616,1.187,15.32,27.29,-8.88,1.68,0.11,-1.64
2022-12-06 15:44:05.0400,-2.148,-2.718,1.131,23.49,24.31,-11.63,1.67,0.44,-1.91
2022-12-06 15:44:05.0490,-2.486,-1.709,-0.083,27.02,14.07,-5.66,1.67,0.44,-1.91
2022-12-06 15:44:05.0590,-2.189,-1.02,0.085,28.82,5.16,3.39,1.17,0.52,-1.68
2022-12-06 15:44:05.0700,-1.736,-0.901,0.458,24.41,0.54,-1.5,0.56,-0.67,-1.39
2022-12-06 15:44:05.0800,-1.387,-1.288,0.097,20.74,1.27,-2.41,0.92,-1.26,-2.01
2022-12-06 15:44:05.0890,-0.824,-1.818,-0.453,17.0,6.98,2.97,1.23,-0.7,-2.72
2022-12-06 15:44:05.0990,-0.28,-1.375,-0.308,11.07,9.33,6.44,0.67,0.17,-2.4
2022-12-06 15:44:05.1090,-0.347,-0.663,0.009,7.68,2.42,3.01,-0.07,0.88,-1.85
2022-12-06 15:44:05.1200,-0.955,-0.699,-0.06,10.98,-2.1,1.65,-0.8,0.19,-1.95
2022-12-06 15:44:05.1300,-1.588,-1.319,-0.181,17.74,1.17,2.79,-0.84,-0.49,-3.01
2022-12-06 15:44:05.1400,-2.008,-1.556,0.066,23.44,7.1,3.08,-1.11,-0.11,-4.14
2022-12-06 15:44:05.1490,-2.268,-1.362,0.51,27.08,7.27,-1.09,-1.51,0.53,-4.71
2022-12-06 15:44:05.1600,-2.425,-1.304,0.479,29.71,5.98,-4.03,-1.7,0.28,-4.33
2022-12-06 15:44:05.1700,-2.378,-1.154,0.22,30.85,5.68,-2.38,-1.91,-0.33,-3.59
2022-12-06 15:44:05.1800,-2.077,-0.98,-0.081,29.67,4.03,-0.04,-1.91,-0.01,-3.65
2022-12-06 15:44:05.1900,-1.75,-0.834,-0.368,26.54,2.83,3.17,-1.87,0.82,-4.0
2022-12-06 15:44:05.2000,-1.435,-0.734,-0.422,23.77,1.68,5.0,-1.71,1.48,-4.1
2022-12-06 15:44:05.2100,-1.103,-0.735,-0.351,20.75,1.42,5.02,-1.43,1.71,-3.91
2022-12-06 15:44:05.2200,-0.79,-0.771,-0.081,17.81,1.97,3.79,-1.23,0.81,-3.36
2022-12-06 15:44:05.2300,-0.372,-0.723,0.323,14.63,2.27,0.08,-0.97,-0.38,-2.39
2022-12-06 15:44:05.2400,-0.018,-0.977,0.02,10.62,2.59,-1.88,-0.3063391447067261,-0.38,-2.39
2022-12-06 15:44:05.2510,0.284,-1.569,-0.412,7.61,6.74,2.57,0.72,-3.32,-0.67
2022-12-06 15:44:05.2600,0.649,-2.181,-0.646,4.56,13.19,5.67,1.82,-3.68,-0.78
2022-12-06 15:44:05.2700,1.182,-2.311,-0.596,0.28,17.97,6.98,1.86,-1.23,-2.43
2022-12-06 15:44:05.2800,2.102,-1.363,0.961,-4.75,16.53,2.94,-0.38,1.16,-2.1
2022-12-06 15:44:05.2890,3.634,-0.231,1.524,-17.88,3.71,-14.77,-1.46,2.14,0.77
2022-12-06 15:44:05.3000,4.375,0.02,0.19,-30.62,-3.29,-10.03,-0.81,0.92,4.75
2022-12-06 15:44:05.3100,3.83,0.285,-0.648,-34.07,-5.69,2.98,-0.11,-0.66,7.48
2022-12-06 15:44:05.3190,2.39,0.363,-0.386,-24.17,-8.6,7.09,-0.28,-1.67,8.27
2022-12-06 15:44:05.3290,1.224,0.241,0.153,-10.63,-9.07,1.76,-0.48,-2.46,7.99
2022-12-06 15:44:05.3400,0.631,0.083,0.111,-1.85,-8.17,-1.69,-0.19,-2.79,7.39
2022-12-06 15:44:05.3490,0.532,0.046,-0.028,1.65,-7.5,-0.35,0.17,-2.33,7.24
2022-12-06 15:44:05.3600,0.781,0.095,0.104,0.39,-8.05,-0.11,0.32,-1.66,7.61
2022-12-06 15:44:05.3700,0.945,0.115,0.201,-2.73,-9.01,-1.91,0.46,-1.16,8.17
2022-12-06 15:44:05.3810,0.87,0.055,0.018,-4.13,-9.36,-1.85,0.67,-0.6,8.69
2022-12-06 15:44:05.3900,0.621,-0.092,-0.201,-3.36,-8.87,0.51,0.89,0.37,9.02
2022-12-06 15:44:05.4000,0.299,-0.305,-0.282,-1.37,-7.49,2.18,1.1,1.55,9.01
2022-12-06 15:44:05.4100,-0.028,-0.493,-0.303,1.05,-5.65,2.87,1.26,2.71,8.62
2022-12-06 15:44:05.4210,-0.3,-0.588,-0.184,3.3,-4.35,2.88,1.34,3.79,7.97
2022-12-06 15:44:05.4300,-0.481,-0.709,0.1,4.85,-3.67,1.19,1.34,4.57,7.16
2022-12-06 15:44:05.4410,-0.504,-0.987,0.461,5.47,-1.99,-1.79,1.12,4.78,6.43
2022-12-06 15:44:05.4510,-0.226,-1.425,0.752,4.02,1.29,-5.24,0.8,4.05,6.04
2022-12-06 15:44:05.4620,0.38,-1.988,0.681,-0.54,6.23,-6.93,0.8,4.05,6.04
2022-12-06 15:44:05.4700,1.191,-2.307,0.477,-8.19,11.59,-5.22,0.37,0.64,5.8
2022-12-06 15:44:05.4800,1.826,-2.095,0.464,-16.41,12.78,-3.57,-0.03,-0.23,4.77
2022-12-06 15:44:05.4900,2.234,-1.709,0.461,-22.21,9.71,-4.18,-0.16,-0.68,3.65
2022-12-06 15:44:05.5000,2.26,-1.259,0.128,-25.59,5.87,-2.94,-0.01,-0.98,2.81
2022-12-06 15:44:05.5100,1.719,-0.844,-0.306,-23.89,1.41,1.31,0.05,-1.25,1.96
2022-12-06 15:44:05.5190,1.037,-0.638,-0.226,-17.63,-1.95,4.11,-0.24,-1.34,0.73
2022-12-06 15:44:05.5300,0.598,-0.657,-0.045,-11.61,-3.02,2.08,-0.52,-1.51,-0.86
2022-12-06 15:44:05.5400,0.615,-0.776,-0.032,-8.75,-2.32,1.24,-1.07,-2.09,-2.48
2022-12-06 15:44:05.5510,1.257,-0.863,-0.009,-10.83,-1.26,0.9,-1.18,-2.15,-3.84
2022-12-06 15:44:05.5620,2.046,-1.295,0.145,-18.51,-0.21,0.63,-0.49,-2.62,-6.0
2022-12-06 15:44:05.5700,2.313,-2.476,0.498,-24.21,7.54,-1.56,2.39,-3.13,-8.08
2022-12-06 15:44:05.5800,1.898,-2.374,1.822,-22.84,15.78,-7.7,1.47,-1.68,-7.25
2022-12-06 15:44:05.5900,2.072,-3.024,2.906,-19.56,13.99,-22.05,-1.59,-3.5,-4.24
2022-12-06 15:44:05.6000,1.016,-2.627,2.472,-19.26,22.14,-27.51,-3.57,-6.75,-3.03
2022-12-06 15:44:05.6100,-0.699,-0.77,0.529,-2.55,8.35,-18.42,-5.39,-8.98,-4.46
2022-12-06 15:44:05.6200,-0.292,-0.476,-3.071,9.3,-4.98,7.11,-3.23,-5.75,-6.47
2022-12-06 15:44:05.6300,2.417,0.271,-3.329,-5.62,-5.63,40.19,-1.08,-1.19,-5.28
2022-12-06 15:44:05.6400,2.155,1.695,0.52,-25.76,-18.71,15.82,-1.58,2.2,-4.14
2022-12-06 15:44:05.6500,0.731,1.517,0.648,-12.74,-27.33,-9.49,-0.92,3.15,-3.6
2022-12-06 15:44:05.6600,0.256,0.488,-0.984,-2.23,-20.94,-1.5,-0.79,3.36,-3.47
2022-12-06 15:44:05.6700,0.352,-0.991,-1.109,0.75,-9.5,12.38,-0.43,3.54,-3.5
2022-12-06 15:44:05.6800,0.875,-2.297,-0.017,-2.26,6.28,7.02,-0.5,3.01,-3.91
2022-12-06 15:44:05.6900,1.366,-2.794,0.312,-6.74,16.03,-3.59,-0.19,2.14,-4.38
2022-12-06 15:44:05.7000,2.155,-2.5,-0.588,-12.05,18.26,0.11,-0.02,1.27,-3.44
2022-12-06 15:44:05.7100,2.847,-1.756,-0.629,-20.04,12.99,6.71,0.29,0.23,-1.59
2022-12-06 15:44:05.7200,2.73,-1.284,-0.339,-24.17,6.24,4.61,0.72,0.26,-0.42
2022-12-06 15:44:05.7300,1.916,-1.56,-0.114,-19.75,3.58,2.97,1.1,0.94,0.2
2022-12-06 15:44:05.7390,0.959,-3.063,0.577,-10.94,10.99,-1.44,1.53,0.62,0.06
2022-12-06 15:44:05.7500,-0.349,-4.085,0.947,-0.59,27.03,-7.15,1.58,0.02,-1.11
2022-12-06 15:44:05.7600,-1.491,-3.528,1.167,12.94,30.63,-10.11,1.32,-0.24,-2.14
2022-12-06 15:44:05.7700,-1.792,-2.399,0.799,21.28,21.96,-10.54,1.47,-0.17,-2.4
2022-12-06 15:44:05.7790,-1.671,-1.578,0.304,22.32,11.43,-4.95,1.59,0.61,-2.23
2022-12-06 15:44:05.7900,-1.354,-1.236,0.252,20.46,5.37,-2.0,1.29,1.23,-1.84
2022-12-06 15:44:05.8000,-1.017,-1.173,0.244,17.05,3.5,-1.39,0.98,0.88,-1.62
2022-12-06 15:44:05.8100,-0.89,-1.202,0.351,14.95,3.28,-1.86,0.79,0.12,-1.36
2022-12-06 15:44:05.8200,-0.678,-1.481,0.247,13.38,4.48,-2.33,0.71,-0.56,-1.58
2022-12-06 15:44:05.8300,-0.517,-1.659,-0.09,11.73,7.74,-0.25,0.9,-0.62,-2.28
2022-12-06 15:44:05.8400,-0.313,-1.274,-0.19,10.06,7.56,3.02,0.78,0.29,-2.49
2022-12-06 15:44:05.8490,-0.316,-0.788,0.052,8.67,2.74,2.15,0.03,1.17,-2.05
2022-12-06 15:44:05.8600,-0.611,-0.763,0.11,10.08,-0.5,0.32,-1.09,1.23,-1.48
2022-12-06 15:44:05.8700,-1.091,-1.159,-0.087,13.72,1.11,0.58,-1.16,0.47,-1.75
2022-12-06 15:44:05.8800,-1.755,-1.511,-0.224,19.44,5.79,3.19,-1.0,-0.21,-2.66
2022-12-06 15:44:05.8900,-2.384,-1.342,0.158,26.09,7.37,2.17,-1.2,-0.12,-3.68
2022-12-06 15:44:05.9000,-2.941,-1.216,0.305,32.47,5.43,-1.45,-1.36,-0.41,-4.11
2022-12-06 15:44:05.9100,-2.941,-1.183,0.155,36.69,5.05,-1.77,-1.63,-0.34,-3.8
2022-12-06 15:44:05.9200,-2.452,-1.097,-0.083,34.75,4.94,0.23,-1.85,0.46,-3.73
2022-12-06 15:44:05.9300,-1.889,-0.918,-0.258,29.4,3.93,2.27,-1.79,1.44,-4.0
2022-12-06 15:44:05.9390,-1.439,-0.796,-0.271,24.59,2.5,3.56,-1.53,1.77,-4.09
2022-12-06 15:44:05.9500,-1.002,-0.765,-0.095,20.54,2.02,2.94,-1.3,0.97,-3.75
2022-12-06 15:44:05.9590,-0.502,-0.757,0.2,16.29,2.08,0.56,-1.3,0.97,-3.75
2022-12-06 15:44:05.9690,-0.043,-1.167,-0.036,11.47,3.14,-1.15,-0.37,-1.55,-1.58
2022-12-06 15:44:05.9800,0.339,-2.006,-0.472,7.44,9.42,2.64,0.95,-3.1,-0.55
2022-12-06 15:44:05.9900,0.569,-2.699,-0.602,4.09,17.86,6.26,1.45,-2.37,-1.21
2022-12-06 15:44:05.9990,0.768,-2.703,0.317,2.39,22.68,3.81,0.1,0.69,-3.11
2022-12-06 15:44:06.0100,1.538,-1.748,1.608,-0.09,19.93,-7.08,-1.74,1.27,-2.3
2022-12-06 15:44:06.0200,2.822,-0.759,1.377,-11.57,8.1,-18.01,-1.65,1.33,0.46
2022-12-06 15:44:06.0300,3.376,-0.29,-0.068,-21.65,1.54,-7.21,-0.96,0.54,3.49
2022-12-06 15:44:06.0480,3.323,0.228,-0.433,-21.83,-8.17,4.07,-0.56,-0.16,5.53
2022-12-06 15:44:06.0470,2.547,0.332,-0.218,-21.83,-8.17,4.07,-0.21,-1.11,6.11
2022-12-06 15:44:06.0590,1.821,0.104,0.117,-13.73,-8.02,1.23,-0.02,-1.64,5.9
2022-12-06 15:44:06.0700,1.525,-0.06,0.421,-8.48,-6.16,-2.35,-0.19,-1.69,6.2
2022-12-06 15:44:06.0800,1.507,-0.099,0.462,-7.33,-5.55,-4.68,-0.38,-1.57,7.17
2022-12-06 15:44:06.0900,1.363,-0.038,0.23,-7.59,-6.04,-4.08,-0.3,-1.39,8.17
2022-12-06 15:44:06.1010,0.974,0.052,-0.084,-5.73,-7.42,-1.4,0.1,-1.01,8.76
2022-12-06 15:44:06.1110,0.554,0.088,-0.334,-2.18,-8.67,1.53,0.66,-0.54,8.96
2022-12-06 15:44:06.1220,0.253,0.03,-0.351,0.83,-9.23,3.31,0.99,0.17,8.96
2022-12-06 15:44:06.1310,0.042,-0.164,-0.191,2.59,-8.57,2.65,1.01,1.2,8.8
2022-12-06 15:44:06.1400,-0.129,-0.411,-0.065,3.7,-6.66,1.12,1.04,2.42,8.35
2022-12-06 15:44:06.1500,-0.225,-0.577,-0.05,4.38,-4.66,0.51,1.21,3.67,7.75
2022-12-06 15:44:06.1600,-0.22,-0.613,-0.009,4.19,-3.72,0.66,1.45,4.51,7.16
2022-12-06 15:44:06.1700,-0.164,-0.698,0.233,3.18,-3.59,-0.11,1.54,4.56,6.65
2022-12-06 15:44:06.1800,0.024,-1.01,0.638,1.63,-2.11,-3.13,1.36,3.87,6.17
2022-12-06 15:44:06.1900,0.453,-1.568,1.042,-1.67,1.97,-7.09,0.73,2.38,5.68
2022-12-06 15:44:06.2080,1.351,-2.16,1.198,-19.36,12.74,-9.9,-0.14,0.35,5.75
2022-12-06 15:44:06.2100,2.608,-2.198,0.625,-19.36,12.74,-9.9,-0.14,0.35,5.75
2022-12-06 15:44:06.2190,2.91,-1.375,-0.292,-30.31,9.52,-1.63,0.36,-1.34,5.5
2022-12-06 15:44:06.2270,2.025,-0.732,-0.447,-28.39,0.89,5.28,0.86,-1.46,4.53
2022-12-06 15:44:06.2400,1.109,-0.711,-0.123,-19.03,-2.83,4.27,0.86,-1.46,4.53
2022-12-06 15:44:06.2500,0.44,-0.99,0.047,-11.24,-1.38,1.25,0.11,-0.87,1.56
2022-12-06 15:44:06.2600,0.229,-1.144,-0.005,-6.15,1.44,0.75,-0.29,-0.6,0.14
2022-12-06 15:44:06.2700,0.65,-0.978,-0.017,-6.48,1.78,1.24,-0.66,-0.39,-0.98
2022-12-06 15:44:06.2800,1.366,-0.701,-0.079,-12.23,-0.67,1.34,-0.86,-0.34,-1.74
2022-12-06 15:44:06.2900,1.989,-0.474,-0.128,-19.04,-3.22,2.07,-0.89,-0.58,-2.19
2022-12-06 15:44:06.3000,2.232,-0.503,-0.005,-23.98,-5.26,1.86,-0.61,-1.55,-3.15
2022-12-06 15:44:06.3100,1.998,-1.398,0.249,-24.0,-2.27,0.32,0.79,-3.28,-5.9
2022-12-06 15:44:06.3210,1.587,-2.576,0.903,-20.64,9.26,-3.23,3.27,-2.52,-7.65
2022-12-06 15:44:06.3300,1.474,-3.379,2.131,-15.12,17.84,-11.33,0.72,-1.75,-5.31
2022-12-06 15:44:06.3390,1.57,-4.057,3.491,-17.27,28.41,-25.52,-3.27,-5.69,-2.85
2022-12-06 15:44:06.3500,-0.143,-1.937,2.828,-10.72,24.27,-33.33,-5.75,-8.28,-2.88
2022-12-06 15:44:06.3590,-1.46,-0.601,-0.715,7.78,1.86,-17.38,-5.13,-7.58,-5.71
2022-12-06 15:44:06.3700,-0.139,-0.354,-4.272,14.05,-4.56,24.49,-1.7,-2.32,-6.73
2022-12-06 15:44:06.3800,2.296,1.118,-1.178,-8.75,-10.42,37.11,-1.74,2.48,-5.47
2022-12-06 15:44:06.3900,1.574,1.681,0.468,-21.17,-24.91,-0.5,-1.59,4.18,-4.6
2022-12-06 15:44:06.4000,0.509,1.15,-0.382,-8.03,-24.62,-2.7,-0.48,3.68,-3.96
2022-12-06 15:44:06.4100,0.405,0.299,-1.355,-1.5,-18.03,8.11,-0.43,2.48,-3.57
2022-12-06 15:44:06.4200,0.701,-0.957,-0.687,-1.52,-7.94,12.43,-0.32,2.29,-3.63
2022-12-06 15:44:06.4300,1.361,-2.095,0.401,-5.85,4.53,1.72,-0.37,2.44,-4.34
2022-12-06 15:44:06.4400,2.323,-2.89,-0.3,-12.71,15.21,-3.96,0.41,2.0,-3.92
2022-12-06 15:44:06.4500,3.361,-2.64,-0.935,-23.26,19.72,7.6,0.43,0.7,-1.57
2022-12-06 15:44:06.4600,3.033,-1.803,-0.322,-29.41,14.08,7.1,0.69,-0.23,-0.03
2022-12-06 15:44:06.4700,1.872,-1.361,-0.072,-21.41,6.39,1.81,1.17,-0.04,0.27
2022-12-06 15:44:06.4800,0.841,-1.922,0.337,-10.08,5.11,0.22,1.43,0.76,-0.18
2022-12-06 15:44:06.4900,-0.075,-3.359,0.871,-0.65,15.16,-5.66,1.85,0.52,-0.97
2022-12-06 15:44:06.5000,-0.929,-3.777,0.831,8.34,27.42,-7.95,1.72,0.01,-1.61
2022-12-06 15:44:06.5110,-1.492,-3.142,0.991,16.07,26.82,-8.13,1.58,-0.18,-1.93
2022-12-06 15:44:06.5200,-1.652,-2.083,0.575,20.24,18.36,-8.08,1.66,0.15,-2.05
2022-12-06 15:44:06.5300,-1.551,-1.404,0.144,20.78,8.7,-2.71,1.68,0.76,-2.06
2022-12-06 15:44:06.5400,-1.348,-1.205,-0.012,19.54,4.29,0.65,1.34,0.81,-1.78
2022-12-06 15:44:06.5500,-0.972,-1.188,0.264,16.96,3.26,0.79,0.77,0.19,-1.39
2022-12-06 15:44:06.5600,-0.873,-1.433,0.329,13.92,4.04,-2.06,0.57,-0.75,-1.45
2022-12-06 15:44:06.5720,-0.879,-1.732,0.025,14.14,7.25,-0.89,0.8,-1.16,-2.36
2022-12-06 15:44:06.5810,-0.531,-1.537,-0.217,13.16,9.01,2.38,0.84,-0.53,-3.06
2022-12-06 15:44:06.5900,-0.24,-0.981,-0.071,9.55,5.3,3.39,0.31,0.42,-2.78
2022-12-06 15:44:06.6000,-0.469,-0.745,0.049,8.43,0.43,1.48,-0.5,0.79,-2.24
2022-12-06 15:44:06.6100,-1.003,-1.019,-0.008,12.76,0.33,1.07,-0.8,0.43,-2.16
2022-12-06 15:44:06.6190,-1.514,-1.48,-0.119,17.92,4.4,2.09,-0.62,0.33,-2.77
2022-12-06 15:44:06.6300,-2.047,-1.564,0.164,23.29,8.2,2.2,-0.82,0.25,-3.5
2022-12-06 15:44:06.6400,-2.583,-1.399,0.477,28.86,7.71,-1.81,-1.09,-0.09,-4.07
2022-12-06 15:44:06.6500,-2.828,-1.278,0.431,33.69,6.49,-3.48,-1.43,-0.65,-4.04
2022-12-06 15:44:06.6600,-2.58,-1.08,0.233,34.73,5.52,-2.3,-1.81,-0.89,-3.81
2022-12-06 15:44:06.6700,-2.045,-0.889,-0.016,30.85,3.46,-0.41,-1.88,-0.52,-3.99
2022-12-06 15:44:06.6790,-1.548,-0.836,-0.23,25.97,2.5,2.01,-1.75,-0.0,-4.09
2022-12-06 15:44:06.6900,-1.086,-0.848,-0.274,21.39,2.53,3.34,-1.46,0.35,-3.93
2022-12-06 15:44:06.6990,-0.701,-0.927,-0.237,17.39,3.25,3.36,-1.16,-0.01,-3.46
2022-12-06 15:44:06.7100,-0.304,-1.033,-0.119,13.85,4.36,2.53,-0.91,-1.06,-2.61
2022-12-06 15:44:06.7200,0.016,-1.449,-0.297,10.17,6.34,1.89,-0.17,-2.05,-1.65
2022-12-06 15:44:06.7300,0.348,-2.141,-0.69,7.43,12.12,4.75,0.97,-2.82,-1.2
2022-12-06 15:44:06.7420,0.746,-2.367,-0.51,3.87,18.2,7.3,1.43,-1.11,-1.79
2022-12-06 15:44:06.7500,1.011,-1.927,0.036,0.22,17.73,3.11,0.64,0.31,-2.65
2022-12-06 15:44:06.7600,1.971,-0.827,1.163,-3.61,11.08,-4.62,-0.43,1.87,-1.53
2022-12-06 15:44:06.7780,2.932,-0.238,0.847,-22.5,-2.75,-4.75,-0.37,1.69,1.12
2022-12-06 15:44:06.7810,3.562,0.045,0.077,-22.5,-2.75,-4.75,-0.11,0.46,4.19
2022-12-06 15:44:06.7900,3.629,0.193,-0.231,-27.4,-5.7,1.32,-0.29,-0.56,6.25
2022-12-06 15:44:06.7990,2.686,-0.035,-0.229,-24.56,-6.15,2.92,-0.38,-1.65,7.02
2022-12-06 15:44:06.8100,1.625,-0.12,-0.163,-13.8,-4.33,2.24,-0.07,-2.43,7.07
2022-12-06 15:44:06.8200,1.096,0.056,-0.002,-5.59,-5.29,1.33,0.13,-2.45,7.15
2022-12-06 15:44:06.8300,0.969,0.251,0.245,-2.65,-7.85,-1.1,0.17,-1.96,7.53
2022-12-06 15:44:06.8400,0.919,0.348,0.232,-2.58,-10.0,-2.97,0.28,-1.39,7.97
2022-12-06 15:44:06.8490,0.73,0.324,-0.02,-2.23,-11.01,-1.83,0.58,-0.9,8.29
2022-12-06 15:44:06.8600,0.434,0.219,-0.254,-0.53,-10.9,0.84,0.99,-0.3,8.48
2022-12-06 15:44:06.8700,0.155,0.062,-0.368,1.75,-10.12,2.76,1.24,0.49,8.58
2022-12-06 15:44:06.8800,-0.083,-0.149,-0.349,3.55,-8.79,3.52,1.23,1.47,8.52
2022-12-06 15:44:06.8900,-0.285,-0.409,-0.272,5.01,-6.8,3.1,1.23,2.83,8.23
2022-12-06 15:44:06.9000,-0.421,-0.582,-0.21,6.03,-4.61,2.63,1.37,4.33,7.75
2022-12-06 15:44:06.9100,-0.429,-0.609,-0.037,6.19,-3.73,2.01,1.44,5.44,7.19
2022-12-06 15:44:06.9220,-0.283,-0.703,0.332,4.97,-3.61,-0.22,1.32,5.66,6.59
2022-12-06 15:44:06.9310,0.041,-0.964,0.784,2.26,-2.09,-4.13,0.94,4.38,5.92
2022-12-06 15:44:06.9400,0.621,-1.509,1.143,-2.39,1.17,-8.36,0.29,1.92,5.16
2022-12-06 15:44:06.9500,1.774,-2.423,1.115,-10.16,8.29,-10.88,-0.4,-0.54,5.15
2022-12-06 15:44:06.9600,3.29,-2.559,0.423,-24.6,16.31,-8.12,-0.53,-2.02,5.69
2022-12-06 15:44:06.9710,3.61,-1.488,-0.227,-37.12,12.25,-0.34,0.03,-1.82,5.75
2022-12-06 15:44:06.9800,2.445,-0.704,-0.369,-34.74,1.18,4.03,0.55,-1.37,4.88
2022-12-06 15:44:06.9900,0.991,-0.715,-0.306,-21.04,-3.04,4.57,0.56,-1.3,3.05
2022-12-06 15:44:07.0000,0.024,-1.005,-0.046,-8.59,-1.33,3.3,-0.09,-1.26,0.68
2022-12-06 15:44:07.0070,-0.182,-1.204,0.136,-1.59,1.77,0.45,-0.81,-1.37,-1.39
2022-12-06 15:44:07.0210,0.528,-1.037,-0.085,-3.01,2.24,0.28,-1.08,-1.57,-2.84
2022-12-06 15:44:07.0300,1.723,-0.818,-0.143,-12.16,-0.1,2.61,-1.01,-1.18,-3.89
2022-12-06 15:44:07.0400,2.679,-0.93,0.327,-23.68,-1.67,1.09,-0.52,-1.46,-5.58
2022-12-06 15:44:07.0500,2.723,-1.905,0.693,-29.76,2.41,-3.82,2.31,-2.77,-7.43
2022-12-06 15:44:07.0590,1.99,-2.423,1.477,-25.2,11.72,-7.77,1.9,-1.16,-6.7
2022-12-06 15:44:07.0700,2.019,-3.416,2.722,-19.62,16.87,-17.58,-1.86,-2.87,-3.72
2022-12-06 15:44:07.0790,0.878,-2.621,2.803,-18.09,24.77,-28.15,-4.38,-6.45,-2.28
2022-12-06 15:44:07.0900,-0.964,-0.755,0.464,-1.0,7.53,-21.1,-5.8,-9.37,-4.02
2022-12-06 15:44:07.1000,-0.827,-0.673,-3.728,13.36,-3.91,11.05,-2.06,-5.03,-6.76
2022-12-06 15:44:07.1090,1.938,0.447,-2.274,-0.29,-4.91,41.82,-1.54,0.71,-5.68
2022-12-06 15:44:07.1210,2.054,1.452,0.801,-22.04,-19.77,5.18,-1.45,3.37,-4.4
2022-12-06 15:44:07.1300,0.778,1.182,0.134,-12.55,-23.56,-7.97,-0.75,3.8,-3.64
2022-12-06 15:44:07.1400,0.304,0.394,-1.286,-2.65,-18.77,4.43,-0.78,3.25,-3.4
2022-12-06 15:44:07.1500,0.352,-0.971,-0.928,0.47,-8.68,13.3,-0.37,2.52,-3.72
2022-12-06 15:44:07.1600,0.881,-2.235,0.037,-1.62,5.36,4.5,-0.22,2.06,-4.18
2022-12-06 15:44:07.1700,1.854,-2.926,-0.272,-8.23,16.37,-0.71,0.1,1.91,-4.18
2022-12-06 15:44:07.1800,2.708,-2.518,-0.504,-17.73,19.49,4.21,0.28,0.83,-2.56
2022-12-06 15:44:07.1900,2.917,-1.766,-0.449,-24.04,12.82,5.14,0.72,-0.14,-0.83
2022-12-06 15:44:07.2000,2.274,-1.6,0.04,-22.61,7.02,2.89,1.05,0.28,-0.01
2022-12-06 15:44:07.2090,1.257,-2.454,0.619,-14.33,8.85,-2.31,1.42,0.76,-0.13
2022-12-06 15:44:07.2200,0.046,-3.513,0.914,-3.67,20.06,-7.56,1.73,0.28,-1.03
2022-12-06 15:44:07.2300,-1.133,-3.549,0.961,8.72,26.99,-8.58,1.51,-0.12,-1.97
2022-12-06 15:44:07.2390,-1.739,-2.823,0.871,18.82,24.19,-9.1,1.42,-0.27,-2.27
2022-12-06 15:44:07.2500,-1.806,-1.945,0.387,22.63,15.79,-6.09,1.57,0.35,-2.29
2022-12-06 15:44:07.2600,-1.651,-1.338,0.009,22.3,8.1,-1.49,1.62,1.12,-2.27
2022-12-06 15:44:07.2700,-1.321,-1.003,0.014,20.55,3.4,1.7,1.24,1.1,-2.08
2022-12-06 15:44:07.2800,-0.854,-0.904,0.44,16.55,1.06,-0.54,0.81,0.31,-1.72
2022-12-06 15:44:07.2900,-0.567,-1.145,0.435,12.6,1.31,-3.71,0.77,-0.84,-1.65
2022-12-06 15:44:07.3000,-0.332,-1.59,0.043,10.53,5.11,-1.7,0.99,-1.89,-2.21
2022-12-06 15:44:07.3110,-0.003,-1.553,-0.3,7.84,8.38,2.37,1.15,-1.31,-2.72
2022-12-06 15:44:07.3200,0.106,-1.14,-0.272,5.41,6.32,4.65,0.5,0.08,-2.24
2022-12-06 15:44:07.3300,-0.144,-0.907,0.065,5.56,2.31,2.84,-0.68,0.9,-1.33
2022-12-06 15:44:07.3400,-0.791,-1.232,0.026,9.97,2.25,0.07,-0.94,0.66,-1.3
2022-12-06 15:44:07.3500,-1.448,-1.58,-0.179,16.63,6.4,2.27,-0.67,0.4,-2.03
2022-12-06 15:44:07.3610,-2.194,-1.543,0.247,23.31,8.67,2.13,-1.01,0.22,-2.91
2022-12-06 15:44:07.3700,-3.221,-1.398,0.519,31.8,7.44,-2.94,-1.41,-0.58,-3.65
2022-12-06 15:44:07.3810,-3.782,-1.239,0.24,41.89,6.61,-3.34,-1.84,-1.26,-3.81
2022-12-06 15:44:07.3910,-3.167,-0.985,-0.146,43.21,4.6,0.11,-2.08,-0.59,-4.06
2022-12-06 15:44:07.4000,-2.249,-0.846,-0.306,35.1,2.82,3.09,-2.05,0.4,-4.37
2022-12-06 15:44:07.4100,-1.518,-0.759,-0.333,26.92,1.98,3.77,-1.74,1.09,-4.41
2022-12-06 15:44:07.4200,-0.965,-0.766,-0.289,20.76,1.78,3.84,-1.28,1.27,-4.07
2022-12-06 15:44:07.4300,-0.453,-0.79,-0.022,15.89,2.43,2.84,-0.98,0.38,-3.14
2022-12-06 15:44:07.4410,0.038,-1.003,0.032,10.89,3.0,-0.22,-0.39,-0.59,-1.84
2022-12-06 15:44:07.4500,0.339,-1.711,-0.485,6.89,7.23,1.88,0.95,-1.6,-0.78
2022-12-06 15:44:07.4600,0.525,-2.398,-0.553,4.41,15.11,6.67,1.46,-1.14,-1.19
2022-12-06 15:44:07.4700,0.674,-2.291,0.578,3.15,19.47,2.75,0.44,1.32,-2.56
2022-12-06 15:44:07.4800,1.135,-1.763,1.519,1.4,16.83,-8.77,-1.03,1.1,-2.31
2022-12-06 15:44:07.4900,2.372,-0.959,1.406,-6.6,9.72,-16.52,-1.17,0.68,-0.22
2022-12-06 15:44:07.5000,3.506,-0.442,0.036,-18.79,3.37,-7.98,-0.72,0.33,2.72
2022-12-06 15:44:07.5100,4.209,0.196,-0.403,-29.14,-2.3,3.15,-0.53,0.29,5.26
2022-12-06 15:44:07.5200,3.437,0.378,-0.119,-31.8,-8.19,3.92,-0.28,-0.58,6.48
2022-12-06 15:44:07.5300,2.068,0.137,0.2,-20.01,-8.13,0.38,-0.21,-1.36,6.86
2022-12-06 15:44:07.5400,1.381,0.087,0.406,-9.0,-6.66,-2.34,-0.53,-1.71,7.29
2022-12-06 15:44:07.5500,1.217,0.158,0.483,-5.16,-7.47,-4.25,-0.73,-1.58,7.89
2022-12-06 15:44:07.5600,1.078,0.191,0.239,-4.61,-8.63,-4.05,-0.53,-1.15,8.39
2022-12-06 15:44:07.5700,0.84,0.181,-0.08,-3.41,-9.37,-1.06,-0.18,-0.63,8.74
2022-12-06 15:44:07.5800,0.579,0.113,-0.243,-1.57,-9.58,1.52,0.17,-0.2,8.99
2022-12-06 15:44:07.5900,0.355,0.01,-0.285,0.16,-9.21,2.56,0.46,0.16,9.07
2022-12-06 15:44:07.6000,0.173,-0.101,-0.241,1.39,-8.58,2.7,0.68,0.97,8.96
2022-12-06 15:44:07.6110,0.004,-0.23,-0.126,2.29,-7.77,2.02,0.9,2.36,8.61
2022-12-06 15:44:07.6200,-0.146,-0.361,-0.083,3.09,-6.74,1.13,1.19,3.83,8.03
2022-12-06 15:44:07.6300,-0.254,-0.528,-0.047,3.64,-5.57,1.17,1.37,4.73,7.36
2022-12-06 15:44:07.6400,-0.267,-0.787,0.258,3.7,-3.72,0.3,1.27,4.67,6.81
2022-12-06 15:44:07.6500,-0.066,-1.197,0.745,2.48,-0.83,-3.66,1.1,3.61,6.21
2022-12-06 15:44:07.6600,0.427,-1.86,0.981,-1.11,4.21,-7.77,0.62,2.02,5.53
2022-12-06 15:44:07.6700,1.452,-2.378,0.917,-8.2,10.88,-8.89,-0.1,0.1,5.15
2022-12-06 15:44:07.6800,2.704,-2.324,0.304,-20.53,14.28,-6.52,-0.2,-1.0,4.94
2022-12-06 15:44:07.6900,3.28,-1.547,-0.217,-31.73,11.06,0.51,0.15,-1.03,4.7
2022-12-06 15:44:07.7010,2.579,-0.752,-0.226,-33.43,2.18,3.37,0.5,-1.33,3.94
2022-12-06 15:44:07.7100,1.373,-0.586,-0.154,-23.44,-3.25,2.99,0.39,-1.68,2.62
2022-12-06 15:44:07.7200,0.58,-0.727,0.053,-12.94,-3.17,1.91,-0.23,-1.65,0.88
2022-12-06 15:44:07.7300,0.374,-0.807,0.035,-7.29,-1.54,0.16,-0.64,-1.58,-0.68
2022-12-06 15:44:07.7400,0.86,-0.562,-0.154,-7.74,-1.87,1.6,-0.73,-1.49,-1.63
2022-12-06 15:44:07.7500,1.742,-0.178,-0.043,-14.48,-5.25,2.57,-0.78,-0.99,-1.91
2022-12-06 15:44:07.7600,2.317,0.036,0.079,-22.67,-8.7,0.65,-0.43,-0.73,-1.68
2022-12-06 15:44:07.7700,1.984,-0.069,-0.021,-25.22,-9.76,0.76,-0.32,-1.61,-1.35
2022-12-06 15:44:07.7810,1.196,-0.548,0.342,-18.84,-7.62,0.21,-0.27,-4.58,-2.47
2022-12-06 15:44:07.7900,0.772,-2.027,0.474,-11.92,-0.33,-3.28,2.19,-3.96,-5.13
2022-12-06 15:44:07.8000,0.562,-3.927,0.946,-8.31,17.72,-3.85,2.4,-0.82,-5.1
2022-12-06 15:44:07.8100,0.43,-5.786,2.766,-6.4,36.47,-12.89,-2.35,-5.09,-3.07
2022-12-06 15:44:07.8200,-0.317,-4.079,4.393,-3.02,46.25,-33.6,-8.12,-10.07,-2.24
2022-12-06 15:44:07.8300,-1.727,-1.637,1.47,7.14,18.58,-39.71,-5.17,-9.4,-5.68
2022-12-06 15:44:07.8400,-1.24,-0.507,-4.159,20.32,2.24,10.64,-2.04,-0.4,-8.46
2022-12-06 15:44:07.8500,2.313,1.589,-2.025,0.47,-11.07,43.08,-2.67,5.62,-7.24
2022-12-06 15:44:07.8600,2.447,2.846,0.248,-27.35,-33.04,3.94,-1.74,6.6,-5.47
2022-12-06 15:44:07.8700,0.735,1.832,-0.792,-14.46,-35.12,1.12,-0.11,4.8,-4.16
2022-12-06 15:44:07.8800,0.493,0.62,-1.545,-2.18,-22.56,10.53,0.18,1.38,-3.4
2022-12-06 15:44:07.8920,0.9,-0.426,-0.733,-2.88,-11.86,15.35,-0.04,0.56,-2.94
2022-12-06 15:44:07.9020,2.158,-2.284,0.302,-8.98,0.57,0.74,0.05,1.21,-3.06
2022-12-06 15:44:07.9120,3.869,-3.89,-0.578,-24.19,21.09,-0.91,0.67,0.67,-2.51
2022-12-06 15:44:07.9220,4.131,-3.274,-0.771,-37.85,29.15,8.38,0.7,-0.51,-0.3
2022-12-06 15:44:07.9310,2.402,-1.823,0.029,-31.73,17.81,5.32,0.81,-0.72,0.43
2022-12-06 15:44:07.9400,0.589,-1.097,0.556,-12.19,4.5,-3.35,1.38,0.18,-0.22
2022-12-06 15:44:07.9500,-0.494,-2.111,0.646,2.71,3.69,-4.76,1.99,1.35,-1.53
2022-12-06 15:44:07.9600,-1.271,-3.722,1.203,11.8,17.94,-8.03,1.41,1.16,-2.09
2022-12-06 15:44:07.9700,-1.916,-3.826,1.375,19.11,30.75,-12.61,1.09,0.38,-2.21
2022-12-06 15:44:07.9800,-2.244,-2.311,0.599,25.06,23.86,-10.56,1.27,0.37,-2.41
2022-12-06 15:44:07.9900,-1.853,-1.219,0.16,25.66,8.83,-2.48,1.34,0.86,-2.5
2022-12-06 15:44:08.0010,-1.397,-0.981,0.087,21.06,1.86,-0.03,1.21,1.29,-2.38
2022-12-06 15:44:08.0100,-1.085,-1.049,0.218,17.3,1.36,0.12,0.88,0.95,-2.13
2022-12-06 15:44:08.0200,-0.888,-1.162,0.429,14.92,2.34,-1.65,0.88,0.07,-1.92
2022-12-06 15:44:08.0300,-0.751,-1.402,0.275,13.44,3.99,-2.84,0.64,-0.83,-2.19
2022-12-06 15:44:08.0370,-0.657,-1.394,-0.175,12.29,6.36,0.51,0.78,-0.83,-2.86
2022-12-06 15:44:08.0490,-0.756,-0.906,-0.082,12.29,4.19,3.64,0.52,0.03,-3.35
2022-12-06 15:44:08.0610,-0.891,-0.734,0.166,13.85,-0.11,1.08,-0.07,0.86,-3.37
2022-12-06 15:44:08.0710,-1.005,-1.017,0.22,15.33,0.42,-0.34,-0.91,0.72,-2.99
2022-12-06 15:44:08.0800,-1.22,-1.474,0.144,16.8,4.28,-0.64,-1.2,-0.29,-2.87
2022-12-06 15:44:08.0900,-1.524,-1.71,0.045,19.73,8.8,0.79,-1.22,-1.13,-3.11
2022-12-06 15:44:08.1010,-1.787,-1.484,0.195,22.65,9.25,0.29,-1.38,-1.1,-3.51
2022-12-06 15:44:08.1100,-2.146,-1.247,0.254,25.91,6.94,-1.05,-1.64,-0.63,-3.85
2022-12-06 15:44:08.1200,-2.273,-1.046,0.192,29.27,4.93,-1.56,-1.89,-0.16,-3.89
2022-12-06 15:44:08.1300,-1.988,-0.914,-0.071,29.21,3.52,-0.17,-2.01,0.03,-3.77
2022-12-06 15:44:08.1410,-1.515,-0.849,-0.254,25.68,2.74,2.24,-1.96,-0.14,-3.72
2022-12-06 15:44:08.1500,-0.995,-0.85,-0.385,20.93,2.61,3.57,-1.78,-0.62,-3.49
2022-12-06 15:44:08.1600,-0.527,-1.021,-0.527,16.18,3.32,4.71,-1.26,-0.85,-2.84
2022-12-06 15:44:08.1700,-0.096,-1.475,-0.669,11.93,6.3,6.11,-0.18,-0.87,-1.77
2022-12-06 15:44:08.1800,0.416,-1.863,-0.468,7.69,11.39,6.63,0.83,-1.38,-0.8
2022-12-06 15:44:08.1900,0.662,-1.846,-0.039,2.72,13.67,2.94,1.2,0.31,-1.38
2022-12-06 15:44:08.2010,0.764,-1.484,0.622,2.63,12.75,-0.78,0.48,1.37,-1.86
2022-12-06 15:44:08.2100,1.693,-0.883,1.128,-1.82,7.52,-9.13,-0.55,2.97,-1.22
2022-12-06 15:44:08.2200,2.54,-0.588,0.763,-11.3,2.8,-9.47,-1.2,3.02,0.78
2022-12-06 15:44:08.2300,3.193,-0.386,0.433,-18.87,0.56,-5.52,-1.38,2.07,3.53
2022-12-06 15:44:08.2410,3.475,-0.215,0.114,-24.4,-1.72,-2.1,-1.53,0.75,5.84
2022-12-06 15:44:08.2510,3.14,-0.217,0.017,-25.41,-3.29,0.45,-1.81,-0.21,7.2
2022-12-06 15:44:08.2600,2.252,-0.236,0.1,-19.98,-3.42,0.38,-1.77,-1.06,7.93
2022-12-06 15:44:08.2700,1.437,-0.092,0.212,-11.36,-4.45,-0.67,-1.54,-1.78,8.28
2022-12-06 15:44:08.2800,0.867,0.031,0.357,-4.86,-6.68,-2.35,-1.28,-2.01,8.45
2022-12-06 15:44:08.2900,0.531,0.032,0.262,-0.76,-7.95,-3.29,-0.89,-1.71,8.49
2022-12-06 15:44:08.3000,0.281,-0.038,0.093,1.35,-8.18,-1.82,-0.44,-1.0,8.29
2022-12-06 15:44:08.3090,0.087,-0.124,0.036,2.99,-7.75,-0.81,-0.02,-0.0,7.94
2022-12-06 15:44:08.3200,-0.021,-0.224,-0.13,3.87,-7.34,-0.05,0.39,1.23,7.52
2022-12-06 15:44:08.3310,-0.087,-0.351,-0.298,4.0,-6.47,1.92,0.76,2.4,7.11
2022-12-06 15:44:08.3400,-0.167,-0.458,-0.329,4.03,-5.52,3.28,1.02,3.24,6.74
2022-12-06 15:44:08.3500,-0.196,-0.551,-0.146,4.08,-4.72,3.02,1.17,3.68,6.43
2022-12-06 15:44:08.3600,-0.068,-0.682,0.183,3.31,-3.87,0.69,1.19,3.61,6.28
2022-12-06 15:44:08.3700,0.264,-0.945,0.519,0.52,-2.31,-2.5,1.06,2.73,6.0
2022-12-06 15:44:08.3800,0.626,-1.412,0.757,-3.49,0.97,-5.54,0.68,1.1,5.46
2022-12-06 15:44:08.3900,1.294,-1.99,0.604,-8.24,6.27,-6.67,0.37,-0.26,4.94
2022-12-06 15:44:08.4000,2.247,-1.986,0.223,-16.95,10.85,-3.63,0.17,-0.73,4.68
2022-12-06 15:44:08.4110,2.691,-1.28,0.13,-25.79,7.52,-0.64,-0.01,-0.69,4.61
2022-12-06 15:44:08.4210,2.246,-0.72,0.088,-27.24,0.4,-0.54,0.15,-0.99,4.11
2022-12-06 15:44:08.4300,1.548,-0.498,-0.122,-21.33,-3.69,0.83,0.14,-1.47,3.04
2022-12-06 15:44:08.4400,0.982,-0.633,0.002,-15.22,-4.47,2.08,-0.16,-1.69,1.61
2022-12-06 15:44:08.4500,0.837,-0.71,0.05,-10.9,-2.58,0.32,-0.35,-1.73,0.39
2022-12-06 15:44:08.4610,1.122,-0.532,-0.037,-11.49,-3.01,0.92,-0.5,-1.8,-0.52
2022-12-06 15:44:08.4710,1.489,-0.454,0.071,-14.88,-4.82,1.1,-1.02,-1.81,-1.06
2022-12-06 15:44:08.4810,1.689,-0.639,0.159,-17.94,-4.59,-0.39,-0.84,-2.32,-1.84
2022-12-06 15:44:08.4920,1.747,-0.998,0.079,-19.12,-2.19,-0.12,-0.33,-3.39,-3.39
2022-12-06 15:44:08.5000,1.793,-1.851,0.609,-18.98,2.49,-1.21,1.17,-5.54,-6.19
2022-12-06 15:44:08.5100,1.586,-2.843,1.317,-18.8,12.64,-7.46,2.0,-3.74,-7.13
2022-12-06 15:44:08.5220,1.908,-4.214,2.591,-15.95,22.26,-15.15,-1.64,-4.05,-4.45
2022-12-06 15:44:08.5310,1.53,-3.577,3.554,-20.16,34.23,-29.78,-4.49,-7.32,-2.31
2022-12-06 15:44:08.5410,-0.566,-0.993,1.188,-7.3,14.6,-30.64,-5.65,-9.53,-3.13
2022-12-06 15:44:08.5500,-0.912,-0.698,-3.674,11.25,-3.27,7.38,-2.02,-4.38,-5.97
2022-12-06 15:44:08.5610,1.446,0.711,-2.583,2.44,-4.97,41.65,-1.39,2.83,-5.29
2022-12-06 15:44:08.5710,1.574,1.923,0.366,-16.95,-24.05,9.79,-1.1,5.24,-4.14
2022-12-06 15:44:08.5810,0.302,1.335,-0.251,-8.2,-27.14,-3.77,-0.32,4.43,-3.6
2022-12-06 15:44:08.5910,-0.029,0.363,-0.922,2.0,-19.41,6.01,-0.69,3.01,-3.58
2022-12-06 15:44:08.6020,0.572,-1.13,-0.11,1.96,-8.1,7.49,-0.53,2.26,-3.79
2022-12-06 15:44:08.6120,1.861,-2.868,-0.043,-6.69,8.35,-1.99,0.13,2.41,-4.16
2022-12-06 15:44:08.6230,3.194,-3.417,-0.74,-19.85,23.35,4.45,0.06,1.24,-2.87
2022-12-06 15:44:08.6320,3.758,-2.436,-0.408,-30.96,21.73,5.88,0.39,-0.46,-0.47
2022-12-06 15:44:08.6410,2.929,-1.434,-0.336,-31.32,10.9,4.01,0.73,-0.55,0.67
2022-12-06 15:44:08.6510,1.439,-1.135,0.153,-19.42,2.58,1.92,0.99,0.9,0.59
2022-12-06 15:44:08.6620,0.117,-2.37,0.608,-5.12,4.97,-3.37,1.48,1.61,-0.31
2022-12-06 15:44:08.6710,-1.122,-3.766,0.611,7.34,20.62,-5.94,1.46,1.24,-1.2
2022-12-06 15:44:08.6820,-2.055,-3.579,1.036,19.15,29.24,-6.16,0.82,0.58,-1.59
2022-12-06 15:44:08.6910,-2.332,-2.384,0.797,25.66,22.18,-10.83,1.13,0.78,-2.11
2022-12-06 15:44:08.7010,-2.226,-1.356,-0.077,27.61,10.35,-2.54,1.3,1.34,-2.33
2022-12-06 15:44:08.7100,-1.62,-0.91,0.188,24.13,2.16,1.14,0.99,1.75,-2.26
2022-12-06 15:44:08.7200,-1.195,-0.95,0.221,18.77,0.23,-1.13,0.68,1.31,-2.05
2022-12-06 15:44:08.7300,-0.899,-1.123,0.274,15.26,1.36,-1.06,0.5,0.42,-1.93
2022-12-06 15:44:08.7400,-0.713,-1.403,0.188,13.03,3.62,-1.25,0.41,-0.65,-2.42
2022-12-06 15:44:08.7510,-0.463,-1.459,0.14,11.43,6.31,-0.15,0.2,-1.05,-3.16
2022-12-06 15:44:08.7620,-0.163,-1.048,-0.008,8.74,5.1,0.12,0.19,-0.06,-3.51
2022-12-06 15:44:08.7720,-0.129,-0.557,-0.167,6.71,0.44,2.4,0.13,1.66,-3.29
2022-12-06 15:44:08.7810,-0.532,-0.429,-0.013,8.28,-3.21,2.52,-0.22,2.5,-2.89
2022-12-06 15:44:08.7910,-0.941,-0.738,-0.09,13.14,-2.65,1.6,-0.56,1.92,-2.46
2022-12-06 15:44:08.8010,-1.332,-1.345,-0.284,16.71,2.01,3.21,-0.51,0.45,-2.39
2022-12-06 15:44:08.8100,-1.829,-1.548,-0.13,21.33,7.59,4.58,-0.64,-0.51,-2.72
2022-12-06 15:44:08.8200,-2.42,-1.307,0.171,26.69,7.35,1.29,-0.86,-0.41,-3.46
2022-12-06 15:44:08.8300,-2.705,-1.162,0.083,32.38,5.3,-0.12,-1.02,-0.18,-4.04
2022-12-06 15:44:08.8410,-2.275,-1.007,0.03,32.85,4.4,0.98,-1.25,-0.13,-4.12
2022-12-06 15:44:08.8510,-1.633,-0.783,0.093,27.25,2.74,0.81,-1.47,-0.46,-4.02
2022-12-06 15:44:08.8600,-1.075,-0.675,0.048,21.62,1.09,0.22,-1.51,-1.05,-3.71
2022-12-06 15:44:08.8700,-0.567,-0.811,-0.214,16.45,1.05,1.3,-1.09,-1.58,-3.03
2022-12-06 15:44:08.8810,-0.173,-1.277,-0.528,12.09,3.83,4.19,-0.13,-2.15,-1.88
2022-12-06 15:44:08.8930,0.184,-1.927,-0.666,8.64,9.61,6.61,0.95,-3.12,-0.76
2022-12-06 15:44:08.9010,0.445,-2.236,-0.47,5.24,15.48,6.78,1.25,-3.26,-0.72
2022-12-06 15:44:08.9100,0.515,-2.194,0.014,3.72,16.83,3.2,0.78,-1.52,-1.52
2022-12-06 15:44:08.9210,0.863,-1.886,0.26,2.42,15.58,-1.88,0.68,0.18,-2.23
2022-12-06 15:44:08.9300,1.451,-1.327,0.252,-1.26,12.4,-1.12,0.25,0.39,-1.03
2022-12-06 15:44:08.9410,2.214,-0.737,0.352,-9.2,5.3,-3.69,0.02,0.93,0.95
2022-12-06 15:44:08.9500,2.349,-0.572,0.055,-14.01,1.78,-1.91,-0.12,0.87,2.87
2022-12-06 15:44:08.9610,2.382,-0.399,-0.038,-14.8,-0.02,0.28,-0.17,0.44,4.5
2022-12-06 15:44:08.9700,2.3,-0.298,-0.128,-15.01,-1.94,1.04,-0.13,0.2,5.76
2022-12-06 15:44:08.9800,2.032,-0.309,-0.103,-13.87,-2.87,1.81,-0.01,0.04,6.63
2022-12-06 15:44:08.9900,1.642,-0.325,0.08,-11.03,-3.16,0.8,0.07,-0.22,7.2
2022-12-06 15:44:09.0010,1.238,-0.329,0.232,-7.51,-3.56,-1.06,0.1,-0.55,7.61
2022-12-06 15:44:09.0100,0.921,-0.323,0.297,-4.27,-4.08,-2.27,0.07,-0.74,7.92
2022-12-06 15:44:09.0210,0.735,-0.331,0.262,-2.26,-4.61,-2.57,0.02,-0.63,8.19
2022-12-06 15:44:09.0300,0.598,-0.374,0.167,-1.4,-4.89,-2.0,-0.01,-0.16,8.39
2022-12-06 15:44:09.0410,0.438,-0.474,0.018,-0.69,-4.68,-0.85,-0.01,-0.16,8.39
2022-12-06 15:44:09.0490,0.28,-0.589,-0.111,0.2,-3.91,0.63,0.33,1.48,8.23
2022-12-06 15:44:09.0600,0.202,-0.614,-0.151,0.75,-3.29,1.74,0.59,2.5,7.87
2022-12-06 15:44:09.0700,0.172,-0.551,-0.061,0.47,-3.67,1.77,0.76,3.66,7.45
2022-12-06 15:44:09.0800,0.119,-0.5,0.131,0.1,-4.5,0.57,0.78,4.17,7.11
2022-12-06 15:44:09.0900,0.105,-0.506,0.333,-0.14,-4.92,-1.33,0.74,3.72,6.95
2022-12-06 15:44:09.1010,0.206,-0.734,0.511,-1.08,-4.36,-3.13,0.73,2.88,6.66
2022-12-06 15:44:09.1100,0.427,-1.289,0.614,-3.21,-0.8,-4.64,0.55,1.88,5.94
2022-12-06 15:44:09.1200,0.859,-1.86,0.564,-6.57,5.25,-5.11,0.26,0.93,5.01
2022-12-06 15:44:09.1300,1.521,-2.056,0.23,-12.36,9.95,-3.71,0.21,0.52,4.29
2022-12-06 15:44:09.1400,2.089,-1.671,-0.012,-19.46,9.75,0.08,0.11,0.42,3.9
2022-12-06 15:44:09.1510,2.06,-1.196,0.195,-23.8,4.98,0.7,-0.16,-0.08,3.25
2022-12-06 15:44:09.1600,1.578,-0.954,0.201,-21.11,1.23,-1.73,-0.08,-0.61,2.23
2022-12-06 15:44:09.1710,1.385,-0.771,-0.019,-17.56,-0.56,0.15,-0.31,-1.07,0.97
2022-12-06 15:44:09.1800,1.33,-0.593,0.039,-16.31,-2.39,0.95,-0.59,-1.46,-0.2
2022-12-06 15:44:09.1910,1.389,-0.415,-0.063,-16.32,-4.06,0.77,-0.62,-1.88,-1.15
2022-12-06 15:44:09.2000,1.521,-0.251,-0.132,-17.0,-5.92,2.01,-0.66,-1.94,-1.78
2022-12-06 15:44:09.2100,1.718,-0.215,-0.065,-18.5,-7.18,2.05,-0.67,-1.63,-1.97
2022-12-06 15:44:09.2200,1.604,-0.388,-0.004,-19.76,-6.96,1.31,-1.0,-1.7,-1.84
2022-12-06 15:44:09.2310,1.042,-0.926,0.077,-16.22,-4.28,0.51,-0.26,-3.4,-3.01
2022-12-06 15:44:09.2420,0.869,-1.755,0.278,-11.05,2.66,0.1,0.73,-4.04,-5.6
2022-12-06 15:44:09.2510,0.836,-2.768,1.075,-10.45,10.64,-4.31,1.64,-1.91,-6.28
2022-12-06 15:44:09.2610,0.971,-5.123,2.163,-8.99,24.54,-12.56,-1.11,-3.65,-3.77
2022-12-06 15:44:09.2710,0.481,-4.796,3.475,-10.46,46.22,-25.61,-5.24,-8.59,-2.42
2022-12-06 15:44:09.2810,-1.148,-1.538,2.456,1.03,24.24,-34.46,-5.79,-10.32,-4.72
2022-12-06 15:44:09.2930,-1.145,-0.424,-2.709,15.26,-0.8,-6.7,-3.15,-3.97,-7.67
2022-12-06 15:44:09.3010,2.014,1.112,-3.485,2.23,-9.08,38.75,-2.25,2.83,-6.69
2022-12-06 15:44:09.3120,2.544,2.718,-0.21,-25.64,-29.04,20.28,-1.67,4.31,-4.97
2022-12-06 15:44:09.3210,0.793,1.917,0.107,-16.16,-35.18,-2.4,-1.05,4.19,-3.88
2022-12-06 15:44:09.3300,0.275,0.59,-0.562,-1.6,-23.23,1.04,-1.06,2.59,-3.18
2022-12-06 15:44:09.3410,0.526,-0.563,-0.999,-0.5,-10.86,6.61,-0.54,1.82,-3.13
2022-12-06 15:44:09.3500,1.006,-1.793,-0.681,-3.33,0.69,9.74,-0.54,1.79,-3.8
2022-12-06 15:44:09.3620,1.992,-2.876,0.146,-9.21,12.96,2.37,-0.33,1.14,-4.37
2022-12-06 15:44:09.3710,3.56,-2.764,-0.81,-21.11,20.71,-1.09,0.69,0.43,-2.31
2022-12-06 15:44:09.3810,3.994,-1.855,-1.091,-34.78,14.85,12.54,0.44,-0.1,0.43
2022-12-06 15:44:09.3910,2.705,-1.33,0.171,-31.53,6.92,4.54,0.67,-0.27,1.37
2022-12-06 15:44:09.4010,0.978,-1.372,0.047,-15.98,3.29,-2.42,1.07,0.3,0.44
2022-12-06 15:44:09.4110,-0.356,-2.595,0.505,0.01,7.66,-1.19,1.29,1.25,-1.2
2022-12-06 15:44:09.4200,-1.021,-3.821,0.906,10.8,22.39,-7.52,1.31,1.17,-1.94
2022-12-06 15:44:09.4300,-1.323,-3.547,0.991,15.47,29.19,-8.9,1.05,0.97,-1.92
2022-12-06 15:44:09.4400,-1.644,-2.536,0.846,18.66,22.62,-9.8,1.14,1.06,-1.94
2022-12-06 15:44:09.4500,-1.705,-1.696,0.312,21.41,12.61,-5.79,1.34,1.54,-2.08
2022-12-06 15:44:09.4610,-1.499,-1.358,0.164,20.88,6.31,-1.67,1.26,2.07,-2.18
2022-12-06 15:44:09.4700,-1.265,-1.293,0.144,18.8,4.5,-0.69,1.0,1.89,-2.08
2022-12-06 15:44:09.4810,-0.995,-1.237,0.309,16.59,4.21,-0.82,0.49,0.85,-1.74
2022-12-06 15:44:09.4910,-0.759,-1.288,0.448,14.05,3.77,-2.91,0.11,-0.71,-1.66
2022-12-06 15:44:09.5010,-0.591,-1.584,0.052,12.19,5.56,-2.44,0.4,-1.51,-2.49
2022-12-06 15:44:09.5110,-0.35,-1.39,-0.259,10.6,7.69,2.14,0.46,-0.93,-3.31
2022-12-06 15:44:09.5210,-0.235,-0.782,-0.138,8.49,3.63,3.38,-0.06,0.37,-3.33
2022-12-06 15:44:09.5310,-0.668,-0.581,-0.032,9.27,-1.48,1.61,-0.48,1.69,-3.26
2022-12-06 15:44:09.5410,-1.258,-0.869,-0.202,15.45,-1.01,1.81,-0.67,2.1,-3.14
2022-12-06 15:44:09.5510,-1.549,-1.327,-0.237,20.0,2.95,3.49,-0.74,1.05,-2.97
2022-12-06 15:44:09.5620,-1.975,-1.557,-0.109,23.35,7.27,3.08,-0.81,-0.25,-3.25
2022-12-06 15:44:09.5710,-2.465,-1.474,0.103,28.21,8.36,1.36,-0.92,-0.31,-3.88
2022-12-06 15:44:09.5820,-2.62,-1.344,0.148,32.57,7.4,-0.44,-1.12,0.25,-4.29
2022-12-06 15:44:09.5910,-2.248,-1.191,0.131,32.38,6.45,-0.35,-1.44,0.61,-4.38
2022-12-06 15:44:09.6010,-1.682,-0.95,0.22,27.69,4.93,-0.64,-1.81,0.2,-4.34
2022-12-06 15:44:09.6110,-1.144,-0.709,0.334,22.55,2.78,-1.76,-2.13,-0.58,-3.97
2022-12-06 15:44:09.6220,-0.635,-0.666,0.202,17.44,1.08,-2.69,-1.96,-0.86,-3.33
2022-12-06 15:44:09.6310,-0.272,-0.99,-0.262,13.16,2.39,0.18,-1.25,-0.96,-2.42
2022-12-06 15:44:09.6410,-0.002,-1.491,-0.477,10.14,6.61,4.16,-0.28,-1.63,-1.34
2022-12-06 15:44:09.6510,0.289,-2.057,-0.449,7.65,12.13,4.91,0.63,-2.36,-0.82
2022-12-06 15:44:09.6600,0.463,-2.279,-0.182,4.98,16.96,3.89,0.64,-1.58,-1.46
2022-12-06 15:44:09.6710,0.721,-2.019,0.424,3.69,17.45,-0.53,0.38,0.59,-2.54
2022-12-06 15:44:09.6800,1.199,-1.493,0.485,0.47,14.23,-4.26,-0.41,0.86,-2.14
2022-12-06 15:44:09.6900,2.158,-0.623,0.763,-6.49,6.9,-6.74,-0.87,1.79,-0.23
2022-12-06 15:44:09.7010,2.545,-0.359,0.32,-14.29,0.76,-5.93,-0.82,1.48,2.08
2022-12-06 15:44:09.7100,2.735,-0.084,0.059,-16.73,-1.47,-1.79,-0.59,0.86,4.3
2022-12-06 15:44:09.7200,2.804,0.117,-0.09,-18.67,-4.66,0.43,-0.56,0.43,5.92
2022-12-06 15:44:09.7300,2.58,0.103,-0.01,-18.59,-6.21,1.06,-0.63,0.19,6.9
2022-12-06 15:44:09.7410,2.021,0.023,0.137,-15.42,-6.24,-0.18,-0.67,-0.18,7.51
2022-12-06 15:44:09.7500,1.448,-0.076,0.277,-9.87,-5.94,-1.69,-0.66,-0.68,8.0
2022-12-06 15:44:09.7610,1.047,-0.111,0.321,-5.35,-5.68,-2.91,-0.67,-0.99,8.45
2022-12-06 15:44:09.7710,0.766,-0.092,0.266,-2.53,-6.22,-3.02,-0.61,-1.06,8.77
2022-12-06 15:44:09.7810,0.547,-0.094,0.16,-0.68,-6.92,-2.34,-0.39,-0.84,8.93
2022-12-06 15:44:09.7910,0.366,-0.116,0.081,0.56,-7.33,-1.42,-0.03,-0.4,8.83
2022-12-06 15:44:09.8030,0.204,-0.2,0.008,1.52,-7.35,-0.78,0.43,0.27,8.49
2022-12-06 15:44:09.8110,0.083,-0.314,-0.107,2.23,-6.7,0.12,0.84,1.16,8.05
2022-12-06 15:44:09.8210,0.005,-0.443,-0.215,2.48,-5.83,1.38,1.21,2.38,7.57
2022-12-06 15:44:09.8320,-0.055,-0.579,-0.244,2.42,-4.68,2.45,1.45,3.81,7.13
2022-12-06 15:44:09.8410,-0.081,-0.641,-0.057,2.26,-3.67,2.24,1.45,4.79,6.89
2022-12-06 15:44:09.8530,-0.028,-0.663,0.291,1.55,-3.45,-0.15,1.22,4.45,6.95
2022-12-06 15:44:09.8610,0.136,-0.958,0.606,-0.03,-2.75,-3.59,1.04,2.84,6.69
2022-12-06 15:44:09.8710,0.479,-1.642,0.804,-2.86,1.9,-6.03,0.58,0.76,5.66
2022-12-06 15:44:09.8810,1.07,-2.294,0.901,-7.7,9.03,-7.63,-0.12,-0.76,3.97
2022-12-06 15:44:09.8910,2.029,-2.477,0.744,-15.02,14.32,-8.09,-0.3,-1.19,3.27
2022-12-06 15:44:09.9020,3.117,-1.792,0.102,-26.23,13.19,-4.29,-0.17,-1.07,3.61
2022-12-06 15:44:09.9110,3.03,-0.716,-0.153,-34.43,3.95,1.32,0.11,-1.27,3.56
2022-12-06 15:44:09.9210,1.765,-0.234,-0.121,-27.98,-5.16,2.36,0.16,-1.83,2.31
2022-12-06 15:44:09.9310,0.885,-0.338,-0.025,-16.01,-7.07,1.62,-0.14,-2.41,0.4
2022-12-06 15:44:09.9410,0.696,-0.498,-0.07,-10.02,-5.29,1.2,-0.45,-2.73,-1.04
2022-12-06 15:44:09.9510,1.107,-0.436,-0.08,-10.51,-4.47,1.85,-0.55,-2.62,-1.55
2022-12-06 15:44:09.9610,1.573,-0.399,0.015,-15.58,-5.57,1.53,-1.0,-2.09,-1.45
2022-12-06 15:44:09.9720,1.427,-0.809,0.0,-17.98,-4.68,0.32,-0.76,-2.58,-2.43
2022-12-06 15:44:09.9820,1.053,-1.763,-0.151,-14.68,1.21,1.94,0.29,-3.66,-5.39
2022-12-06 15:44:09.9920,1.089,-2.944,0.303,-11.58,12.57,1.61,2.04,-2.09,-7.18
2022-12-06 15:44:10.0010,1.312,-3.829,1.774,-12.42,21.97,-5.8,-0.45,-1.15,-5.74
2022-12-06 15:44:10.0110,1.238,-4.051,3.209,-14.18,31.65,-23.22,-3.59,-5.34,-3.68
2022-12-06 15:44:10.0210,-0.134,-1.628,2.209,-8.0,22.28,-30.27,-3.59,-5.34,-3.68
2022-12-06 15:44:10.0310,-0.622,-0.571,-1.698,6.43,-0.29,-9.11,-5.75,-9.53,-3.7
2022-12-06 15:44:10.0370,1.802,0.44,-3.264,0.77,-5.79,29.62,-2.32,1.93,-6.34
2022-12-06 15:44:10.0490,2.917,1.981,-0.165,-24.61,-21.44,21.0,-1.75,4.18,-4.84
2022-12-06 15:44:10.0610,1.223,1.638,0.064,-21.3,-29.19,-3.35,-1.1,4.15,-3.89
2022-12-06 15:44:10.0700,0.332,0.699,-0.742,-4.3,-22.36,2.12,-0.66,2.01,-3.14
2022-12-06 15:44:10.0810,0.411,-0.466,-1.336,-0.09,-12.27,9.77,-0.3,1.34,-2.96
2022-12-06 15:44:10.0910,0.921,-1.719,-0.429,-2.12,0.12,11.3,-0.4,1.76,-3.56
2022-12-06 15:44:10.1010,1.921,-2.831,0.111,-8.69,12.02,-0.4,0.09,2.06,-4.0
2022-12-06 15:44:10.1110,3.19,-2.989,-0.942,-19.67,21.02,2.06,0.58,0.94,-2.12
2022-12-06 15:44:10.1210,3.488,-2.269,-0.721,-30.16,18.09,9.96,0.75,-0.2,0.17
2022-12-06 15:44:10.1300,2.359,-1.62,-0.185,-27.07,10.79,4.81,1.02,-0.55,0.73
2022-12-06 15:44:10.1410,0.851,-1.469,0.305,-13.31,5.24,-0.12,1.43,0.58,-0.16
2022-12-06 15:44:10.1510,-0.275,-2.761,0.899,0.46,8.75,-4.87,1.81,1.25,-1.44
2022-12-06 15:44:10.1610,-0.99,-3.917,1.184,9.87,23.95,-10.35,1.45,0.64,-1.92
2022-12-06 15:44:10.1700,-1.614,-3.427,1.321,16.32,29.72,-11.68,1.1,0.27,-2.06
2022-12-06 15:44:10.1790,-2.032,-2.131,0.745,22.42,20.19,-11.56,1.39,0.43,-2.28
2022-12-06 15:44:10.2010,-1.979,-1.36,0.032,23.1,3.7,0.22,1.39,1.23,-2.32
2022-12-06 15:44:10.2090,-1.555,-1.164,0.253,18.58,3.23,-2.01,0.9,1.71,-2.05
2022-12-06 15:44:10.2110,-1.141,-1.278,0.268,18.58,3.23,-2.01,0.57,1.24,-1.7
2022-12-06 15:44:10.2200,-0.885,-1.448,0.216,13.67,6.46,-0.72,0.57,1.24,-1.7
2022-12-06 15:44:10.2290,-0.866,-1.487,0.102,13.67,6.46,-0.72,0.45,-0.44,-2.34
2022-12-06 15:44:10.2400,-0.804,-1.16,-0.065,14.04,5.84,0.91,0.51,-0.36,-3.16
2022-12-06 15:44:10.2510,-0.71,-0.679,-0.063,13.09,1.59,2.14,0.28,0.41,-3.49
2022-12-06 15:44:10.2610,-0.858,-0.596,-0.042,13.36,-1.82,1.62,-0.23,1.57,-3.23
2022-12-06 15:44:10.2710,-0.961,-0.859,-0.09,15.15,-0.94,1.96,-0.92,1.59,-2.72
2022-12-06 15:44:10.2820,-1.219,-1.318,-0.195,16.49,2.78,2.59,-1.12,0.18,-2.64
2022-12-06 15:44:10.2920,-1.586,-1.491,-0.15,19.92,7.02,3.38,-0.89,-1.1,-3.04
2022-12-06 15:44:10.3020,-2.006,-1.447,-0.068,23.86,7.5,2.3,-0.73,-1.02,-3.76
2022-12-06 15:44:10.3110,-2.279,-1.413,0.02,28.17,7.47,1.49,-0.77,-0.34,-4.21
2022-12-06 15:44:10.3210,-2.185,-1.284,0.111,29.81,7.09,0.48,-1.09,0.18,-4.21
2022-12-06 15:44:10.3310,-1.831,-1.058,0.233,27.91,5.8,-0.56,-1.63,0.21,-4.0
2022-12-06 15:44:10.3410,-1.434,-0.835,0.262,24.42,3.65,-1.72,-2.04,-0.45,-3.77
2022-12-06 15:44:10.3510,-0.954,-0.807,0.054,20.5,2.28,-1.38,-2.03,-1.4,-3.25
2022-12-06 15:44:10.3620,-0.478,-1.141,-0.344,15.79,3.43,1.4,-1.32,-2.06,-2.25
2022-12-06 15:44:10.3710,-0.073,-1.792,-0.655,11.57,8.36,5.04,-1.32,-2.06,-2.25
2022-12-06 15:44:10.3820,0.286,-2.299,-0.69,7.77,15.04,7.06,1.01,-2.76,-0.89
2022-12-06 15:44:10.3910,0.449,-2.281,-0.23,4.89,18.28,5.69,0.98,-1.04,-1.86
2022-12-06 15:44:10.4010,0.658,-1.99,0.246,3.56,16.56,-0.76,0.65,0.44,-3.06
2022-12-06 15:44:10.4110,1.555,-1.204,0.767,0.26,13.17,-3.68,-0.26,1.42,-1.92
2022-12-06 15:44:10.4210,2.507,-0.628,0.606,-10.79,4.46,-8.37,-0.6,1.82,0.41
2022-12-06 15:44:10.4320,2.86,-0.359,0.204,-17.44,1.13,-3.93,-0.52,1.24,2.89
2022-12-06 15:44:10.4410,3.011,0.02,0.012,-20.09,-2.42,-1.09,-0.47,0.73,4.98
2022-12-06 15:44:10.4510,2.853,0.101,-0.135,-20.85,-5.68,0.8,-0.43,0.11,6.32
2022-12-06 15:44:10.4610,2.284,0.014,-0.098,-18.09,-6.04,1.69,-0.27,-0.47,7.02
2022-12-06 15:44:10.4700,1.588,-0.055,0.104,-11.88,-5.71,0.5,-0.11,-1.01,7.43
2022-12-06 15:44:10.4810,1.132,-0.073,0.301,-6.16,-5.75,-1.66,-0.2,-1.3,7.84
2022-12-06 15:44:10.4910,0.876,-0.035,0.411,-3.15,-6.37,-3.52,-0.41,-1.22,8.23
2022-12-06 15:44:10.5010,0.697,-0.009,0.302,-1.58,-7.31,-3.99,-0.43,-0.86,8.56
2022-12-06 15:44:10.5110,0.546,-0.027,0.016,-0.64,-7.94,-2.2,-0.16,-0.34,8.76
2022-12-06 15:44:10.5210,0.397,-0.1,-0.227,0.13,-8.0,0.68,0.28,0.27,8.81
2022-12-06 15:44:10.5310,0.289,-0.147,-0.334,0.71,-7.66,2.54,0.73,0.97,8.71
2022-12-06 15:44:10.5410,0.198,-0.14,-0.347,0.86,-7.76,3.3,1.15,1.88,8.46
2022-12-06 15:44:10.5510,0.1,-0.149,-0.285,0.96,-8.14,3.29,1.49,2.83,8.05
2022-12-06 15:44:10.5610,-0.052,-0.289,-0.136,1.28,-7.87,2.59,1.63,3.4,7.52
2022-12-06 15:44:10.5700,-0.182,-0.609,0.116,2.16,-5.96,0.93,1.53,3.24,7.09
2022-12-06 15:44:10.5810,-0.164,-1.215,0.462,2.16,-2.0,-1.69,1.3,2.55,6.61
2022-12-06 15:44:10.5900,0.075,-2.018,0.824,0.74,5.07,-5.3,0.6,1.71,6.03
2022-12-06 15:44:10.6010,0.744,-2.443,0.75,-3.66,12.49,-7.75,-0.05,0.54,5.58
2022-12-06 15:44:10.6110,1.563,-2.09,0.094,-11.98,13.71,-4.63,0.02,0.22,5.07
2022-12-06 15:44:10.6210,2.095,-1.466,-0.327,-19.84,8.66,2.3,0.18,0.56,4.26
2022-12-06 15:44:10.6310,1.983,-1.035,-0.06,-23.46,2.94,3.45,0.1,0.44,3.1
2022-12-06 15:44:10.6410,1.459,-0.887,0.077,-20.4,0.05,0.44,-0.05,-0.31,1.84
2022-12-06 15:44:10.6520,1.19,-0.762,0.009,-15.78,-1.02,0.21,-0.32,-1.1,0.77
2022-12-06 15:44:10.6610,1.309,-0.631,-0.033,-14.9,-2.32,0.92,-0.6,-1.58,-0.25
2022-12-06 15:44:10.6710,1.576,-0.486,-0.047,-16.78,-3.56,1.19,-0.71,-1.89,-1.12
2022-12-06 15:44:10.6820,1.91,-0.288,-0.032,-19.64,-5.25,1.23,-0.72,-1.94,-1.58
2022-12-06 15:44:10.6920,2.052,-0.133,0.032,-22.54,-7.26,0.89,-0.6,-1.77,-1.62
2022-12-06 15:44:10.7010,1.621,-0.259,0.011,-21.97,-8.08,0.32,-1.07,-2.08,-1.5
2022-12-06 15:44:10.7110,0.834,-0.933,-0.136,-15.44,-5.39,0.79,-1.0,-4.2,-3.03
2022-12-06 15:44:10.7210,0.415,-2.556,-0.386,-8.28,4.68,3.57,1.1,-3.65,-6.23
2022-12-06 15:44:10.7320,0.251,-3.944,0.695,-5.07,21.21,2.43,1.3,0.29,-6.74
2022-12-06 15:44:10.7420,0.439,-5.875,2.93,-3.82,35.87,-12.98,-2.19,-3.74,-4.99
2022-12-06 15:44:10.7510,-0.176,-3.667,4.446,-4.06,46.9,-36.42,-5.49,-9.34,-4.57
2022-12-06 15:44:10.7610,-1.161,-0.357,0.967,6.13,10.29,-37.77,-5.09,-8.38,-6.89
2022-12-06 15:44:10.7710,0.873,0.536,-4.135,10.18,-9.96,13.36,-2.36,-0.11,-7.7
2022-12-06 15:44:10.7810,4.295,2.862,-1.922,-23.59,-22.07,40.59,-2.66,4.44,-5.05
2022-12-06 15:44:10.7910,2.453,2.656,0.033,-38.15,-41.85,4.74,-1.37,3.81,-3.56
2022-12-06 15:44:10.8010,0.471,0.905,-0.592,-11.72,-28.45,1.76,-0.85,2.22,-2.93
2022-12-06 15:44:10.8110,0.338,-0.144,-0.831,-0.34,-13.99,5.3,-0.56,1.35,-3.13
2022-12-06 15:44:10.8210,0.613,-1.435,-1.428,-0.95,-3.8,10.94,-0.1,2.16,-3.83
2022-12-06 15:44:10.8310,1.375,-2.737,-0.333,-4.93,10.19,10.44,-0.25,1.73,-4.52
2022-12-06 15:44:10.8410,2.563,-3.063,-0.066,-13.64,20.79,-1.07,0.5,0.84,-3.34
2022-12-06 15:44:10.8520,3.363,-2.252,-1.159,-25.39,18.63,5.44,0.62,0.6,-1.21
2022-12-06 15:44:10.8610,2.819,-1.641,-0.202,-27.93,10.45,8.3,0.78,-0.26,0.32
2022-12-06 15:44:10.8710,1.848,-1.534,0.096,-19.95,6.31,-0.68,1.13,-0.48,0.46
2022-12-06 15:44:10.8810,0.772,-2.204,0.403,-10.03,7.38,-1.56,1.35,0.57,-0.42
2022-12-06 15:44:10.8910,-0.172,-3.608,1.052,0.47,18.02,-6.94,1.46,0.67,-1.31
2022-12-06 15:44:10.9020,-0.872,-3.903,1.092,8.76,29.5,-11.05,1.18,0.57,-1.67
2022-12-06 15:44:10.9110,-1.498,-2.955,1.059,15.42,27.0,-10.7,1.07,0.68,-1.81
2022-12-06 15:44:10.9210,-1.934,-1.902,0.507,21.25,15.99,-8.75,1.27,1.08,-1.95
2022-12-06 15:44:10.9310,-2.061,-1.386,0.202,24.6,7.59,-2.78,1.13,1.73,-1.93
2022-12-06 15:44:10.9410,-1.859,-1.24,0.251,24.82,4.33,-1.54,0.72,1.82,-1.73
2022-12-06 15:44:10.9520,-1.488,-1.332,0.239,21.92,3.86,-1.92,0.41,1.2,-1.59
2022-12-06 15:44:10.9610,-1.253,-1.498,0.184,18.81,5.47,-1.39,0.41,1.2,-1.59
2022-12-06 15:44:10.9710,-1.006,-1.492,-0.03,16.94,6.89,-0.42,0.34,-0.67,-3.32
2022-12-06 15:44:10.9820,-0.606,-1.047,-0.181,14.1,5.45,1.95,0.47,0.09,-4.24
2022-12-06 15:44:10.9910,-0.31,-0.55,-0.032,10.54,0.44,2.29,0.07,1.29,-4.1
2022-12-06 15:44:11.0010,-0.414,-0.486,0.022,9.03,-3.05,0.78,-0.56,1.53,-3.36
2022-12-06 15:44:11.0110,-0.99,-0.954,-0.135,12.41,-1.23,1.05,-0.71,0.43,-3.09
2022-12-06 15:44:11.0210,-1.402,-1.5,-0.317,18.26,4.47,3.24,-0.46,-0.79,-3.32
2022-12-06 15:44:11.0320,-1.763,-1.664,-0.011,21.97,9.08,3.59,-0.55,-1.78,-3.7
2022-12-06 15:44:11.0410,-2.159,-1.555,0.365,25.98,9.26,-1.06,-0.84,-1.68,-4.23
2022-12-06 15:44:11.0470,-2.284,-1.509,0.34,29.67,8.83,-3.08,-1.23,-0.93,-4.43
2022-12-06 15:44:11.0590,-1.986,-1.339,0.298,29.42,8.34,-2.74,-1.23,-0.93,-4.43
2022-12-06 15:44:11.0730,-1.572,-1.098,0.24,25.96,6.62,-2.48,-1.96,-0.34,-4.03
2022-12-06 15:44:11.0820,-1.164,-0.934,0.077,22.18,4.65,-1.73,-2.02,-1.03,-3.7
2022-12-06 15:44:11.0910,-0.734,-1.039,-0.197,18.27,4.15,0.14,-1.65,-1.68,-3.02
2022-12-06 15:44:11.1010,-0.357,-1.47,-0.481,14.31,6.72,2.84,-0.81,-1.91,-2.04
2022-12-06 15:44:11.1120,-0.016,-1.997,-0.582,10.95,11.94,5.0,0.1,-2.29,-1.28
2022-12-06 15:44:11.1210,0.305,-2.237,-0.229,7.62,16.51,4.4,0.42,-1.65,-1.44
2022-12-06 15:44:11.1310,0.462,-2.165,0.269,4.94,17.62,-0.81,0.34,0.5,-2.77
2022-12-06 15:44:11.1410,0.956,-1.671,0.765,3.81,16.36,-4.24,-0.44,1.5,-2.68
2022-12-06 15:44:11.1510,2.007,-0.874,0.956,-4.54,9.17,-10.37,-1.07,2.91,-1.1
2022-12-06 15:44:11.1610,2.438,-0.501,0.556,-12.9,3.27,-8.2,-1.38,3.06,1.11
2022-12-06 15:44:11.1720,2.534,-0.2,0.39,-15.4,0.03,-4.97,-1.32,2.39,3.27
2022-12-06 15:44:11.1810,2.501,-0.045,0.189,-15.88,-2.84,-3.14,-1.07,1.48,5.03
2022-12-06 15:44:11.1910,2.51,-0.034,0.216,-15.63,-4.03,-1.52,-0.97,1.01,6.34
2022-12-06 15:44:11.2010,2.445,-0.053,0.413,-16.19,-4.52,-2.67,-1.11,0.73,7.13
2022-12-06 15:44:11.2110,2.098,-0.085,0.588,-14.9,-4.86,-4.67,-1.34,0.19,7.75
2022-12-06 15:44:11.2200,1.597,-0.121,0.639,-11.05,-5.09,-6.06,-1.5,-0.45,8.42
2022-12-06 15:44:11.2300,1.181,-0.086,0.579,-6.83,-5.54,-6.19,-1.61,-0.95,8.99
2022-12-06 15:44:11.2410,0.865,-0.023,0.424,-3.77,-6.72,-5.44,-1.52,-1.1,9.42
2022-12-06 15:44:11.2510,0.644,-0.013,0.197,-1.72,-7.78,-3.81,-1.04,-0.88,9.63
2022-12-06 15:44:11.2600,0.489,-0.076,-0.071,-0.66,-8.07,-1.44,-0.23,-0.17,9.56
2022-12-06 15:44:11.2710,0.338,-0.053,-0.17,-0.03,-8.0,0.7,0.58,0.84,9.3
2022-12-06 15:44:11.2810,0.135,0.111,-0.141,0.73,-9.14,1.04,1.24,1.65,8.88
2022-12-06 15:44:11.2910,-0.122,0.303,-0.153,2.15,-11.33,0.96,1.82,2.41,8.3
2022-12-06 15:44:11.3000,-0.368,0.315,-0.152,3.89,-12.99,1.36,2.33,3.22,7.63
2022-12-06 15:44:11.3110,-0.518,0.018,-0.064,5.35,-12.12,1.38,2.58,3.91,7.13
2022-12-06 15:44:11.3210,-0.401,-0.548,0.278,5.35,-8.2,0.11,2.22,3.88,6.93
2022-12-06 15:44:11.3310,-0.076,-1.381,0.89,2.43,-1.63,-4.3,1.32,2.61,6.43
2022-12-06 15:44:11.3410,0.51,-2.377,1.289,-2.1,7.37,-10.09,0.33,0.4,5.03
2022-12-06 15:44:11.3510,1.473,-3.121,1.018,-9.58,17.17,-11.67,-0.21,-1.36,3.67
2022-12-06 15:44:11.3630,2.948,-2.668,0.295,-21.56,21.06,-6.94,-0.13,-1.21,3.62
2022-12-06 15:44:11.3730,3.818,-1.257,-0.23,-35.97,11.88,0.47,0.03,-0.48,4.09
2022-12-06 15:44:11.3810,2.741,-0.289,-0.346,-38.47,-1.84,3.6,0.43,-0.85,3.37
2022-12-06 15:44:11.3910,1.183,-0.333,-0.278,-23.41,-7.16,4.41,0.23,-1.6,1.17
2022-12-06 15:44:11.4000,0.539,-0.625,0.042,-11.28,-4.81,2.32,-0.35,-2.23,-1.17
2022-12-06 15:44:11.4110,0.856,-0.724,-0.071,-8.53,-2.48,0.44,-0.85,-2.65,-2.49
2022-12-06 15:44:11.4210,1.658,-0.79,-0.261,-14.08,-2.28,2.47,-1.0,-2.81,-3.57
2022-12-06 15:44:11.4310,2.15,-1.431,-0.366,-21.39,-0.2,4.1,-0.61,-2.64,-5.46
2022-12-06 15:44:11.4410,1.87,-2.426,0.046,-22.79,8.32,3.74,1.78,-1.9,-6.94
2022-12-06 15:44:11.4510,1.39,-3.055,1.093,-17.83,16.49,-2.46,1.23,0.72,-5.99
2022-12-06 15:44:11.4600,1.06,-4.15,2.713,-13.39,24.45,-15.39,1.23,0.72,-5.99
2022-12-06 15:44:11.4710,-0.26,-2.435,2.947,-7.01,29.02,-28.88,-3.74,-6.33,-3.55
2022-12-06 15:44:11.4800,-1.527,-0.186,0.563,8.07,3.45,-22.92,-5.82,-10.18,-5.19
2022-12-06 15:44:11.4900,-0.606,-0.025,-3.658,16.96,-10.12,10.1,-1.71,-3.35,-7.59
2022-12-06 15:44:11.5010,3.425,1.225,-2.07,-7.8,-11.06,41.45,-2.32,3.6,-6.34
2022-12-06 15:44:11.5110,3.013,2.385,1.055,-36.55,-28.94,0.81,-1.73,3.76,-4.91
2022-12-06 15:44:11.5200,1.147,1.31,-0.499,-18.39,-30.19,-5.94,-0.24,2.79,-4.01
2022-12-06 15:44:11.5310,0.796,0.183,-1.648,-6.11,-17.79,9.88,-0.58,2.29,-3.59
2022-12-06 15:44:11.5410,0.994,-1.331,-0.905,-4.67,-6.05,15.42,-0.13,1.9,-3.51
2022-12-06 15:44:11.5510,1.399,-2.556,0.317,-7.7,9.04,3.2,-0.2,1.39,-4.28
2022-12-06 15:44:11.5610,2.173,-2.98,-0.391,-11.94,19.11,-3.34,0.4,1.11,-3.9
2022-12-06 15:44:11.5710,2.93,-2.293,-0.806,-20.66,18.65,7.73,0.47,0.71,-2.0
2022-12-06 15:44:11.5810,2.629,-1.555,-0.485,-24.27,10.63,6.15,1.02,-0.05,-0.54
2022-12-06 15:44:11.5910,1.875,-1.496,-0.148,-18.44,5.38,4.12,1.35,-0.08,-0.04
2022-12-06 15:44:11.6010,1.191,-2.409,0.645,-11.25,8.17,-0.96,1.61,0.48,-0.21
2022-12-06 15:44:11.6110,0.328,-3.744,1.17,-4.26,20.4,-8.88,1.86,0.27,-0.95
2022-12-06 15:44:11.6210,-0.664,-3.889,1.122,5.28,30.26,-10.97,1.76,-0.09,-1.64
2022-12-06 15:44:11.6310,-1.253,-3.115,1.046,14.09,27.37,-10.46,1.7,-0.25,-1.91
2022-12-06 15:44:11.6410,-1.455,-2.126,0.529,18.29,18.51,-7.9,1.82,0.2,-1.93
2022-12-06 15:44:11.6510,-1.582,-1.433,0.042,19.83,9.35,-2.35,1.83,1.01,-1.87
2022-12-06 15:44:11.6610,-1.626,-1.181,-0.024,21.18,4.58,1.67,1.43,1.18,-1.7
2022-12-06 15:44:11.6710,-1.397,-1.205,0.304,20.83,3.25,0.41,0.78,0.64,-1.48
2022-12-06 15:44:11.6810,-1.191,-1.519,0.346,18.16,4.74,-2.39,0.56,-0.29,-1.85
2022-12-06 15:44:11.6910,-1.045,-1.741,-0.104,17.16,8.31,-0.57,0.87,-0.97,-2.89
2022-12-06 15:44:11.7010,-0.563,-1.399,-0.31,14.47,8.66,3.87,1.02,-0.22,-3.57
2022-12-06 15:44:11.7110,-0.34,-0.899,-0.097,10.33,4.32,3.95,0.33,0.83,-3.18
2022-12-06 15:44:11.7210,-0.684,-0.792,-0.048,10.22,0.34,1.95,-0.48,0.86,-2.65
2022-12-06 15:44:11.7320,-1.393,-1.339,-0.263,15.97,2.16,2.83,-0.73,0.03,-2.7
2022-12-06 15:44:11.7410,-1.849,-1.805,-0.116,22.24,8.45,4.19,-0.74,-0.74,-3.31
2022-12-06 15:44:11.7510,-2.345,-1.807,0.185,26.9,11.39,1.41,-0.86,-0.81,-4.1
2022-12-06 15:44:11.7610,-2.588,-1.575,0.374,31.69,10.6,-1.22,-1.1,-0.72,-4.46
2022-12-06 15:44:11.7710,-2.346,-1.379,0.317,32.53,8.36,-2.63,-1.44,-0.37,-4.3
2022-12-06 15:44:11.7820,-1.846,-1.209,0.11,29.03,7.19,-1.13,-1.77,0.0,-4.12
2022-12-06 15:44:11.7900,-1.465,-0.987,-0.019,24.56,5.48,0.47,-1.97,0.13,-4.08
2022-12-06 15:44:11.8010,-1.142,-0.877,-0.152,21.44,3.88,1.63,-1.97,-0.15,-3.87
2022-12-06 15:44:11.8110,-0.8,-0.943,-0.245,18.44,3.73,2.73,-1.71,-0.68,-3.3
2022-12-06 15:44:11.8210,-0.406,-1.227,-0.298,15.09,5.41,3.33,-1.07,-1.17,-2.28
2022-12-06 15:44:11.8310,-0.006,-1.654,-0.323,11.2,9.21,3.64,-0.2,-1.75,-1.33
2022-12-06 15:44:11.8400,0.314,-1.894,-0.216,7.58,13.17,3.4,0.38,-1.85,-1.19
2022-12-06 15:44:11.8500,0.451,-1.878,-0.079,4.96,14.54,1.52,0.76,-0.46,-2.3
2022-12-06 15:44:11.8590,0.866,-1.45,0.318,4.18,13.82,0.78,0.76,-0.46,-2.3
2022-12-06 15:44:11.8730,1.936,-0.667,0.765,-3.36,7.3,-5.72,-0.52,2.36,-1.64
2022-12-06 15:44:11.8830,2.703,-0.243,0.525,-13.07,1.1,-6.32,-0.88,2.86,0.62
2022-12-06 15:44:11.8920,3.26,0.073,0.325,-19.71,-2.4,-3.96,-0.83,2.36,3.5
2022-12-06 15:44:11.9010,3.375,0.269,-0.03,-24.15,-5.53,-1.08,-0.82,1.26,5.88
2022-12-06 15:44:11.9110,2.807,0.199,-0.073,-22.9,-6.93,1.91,-1.05,0.29,7.25
2022-12-06 15:44:11.9210,2.007,0.089,0.188,-16.17,-6.38,0.79,-1.29,-0.43,7.82
2022-12-06 15:44:11.9310,1.345,0.079,0.392,-8.94,-6.28,-1.97,-1.35,-1.07,8.06
2022-12-06 15:44:11.9410,0.962,0.121,0.417,-3.9,-7.13,-3.43,-1.29,-1.48,8.29
2022-12-06 15:44:11.9510,0.778,0.14,0.363,-1.56,-8.09,-3.46,-1.11,-1.49,8.59
2022-12-06 15:44:11.9610,0.668,0.15,0.258,-0.74,-8.79,-2.94,-0.82,-1.29,8.82
2022-12-06 15:44:11.9710,0.554,0.139,0.134,-0.39,-9.4,-1.91,-0.82,-1.29,8.82
2022-12-06 15:44:11.9820,0.422,0.099,0.012,0.1,-9.64,-0.82,0.12,-0.64,8.89
2022-12-06 15:44:11.9910,0.282,0.041,-0.105,0.65,-9.62,0.33,0.73,0.09,8.76
2022-12-06 15:44:12.0020,0.13,-0.061,-0.208,1.26,-9.25,1.48,1.33,1.15,8.46
2022-12-06 15:44:12.0130,-0.041,-0.223,-0.284,2.05,-8.32,2.57,1.83,2.54,8.02
2022-12-06 15:44:12.0210,-0.199,-0.435,-0.214,2.94,-6.68,3.19,1.83,2.54,8.02
2022-12-06 15:44:12.0310,-0.31,-0.682,0.093,3.56,-4.6,1.89,1.69,4.5,7.35
2022-12-06 15:44:12.0400,-0.359,-1.04,0.573,3.8,-1.96,-1.71,1.16,3.63,7.25
2022-12-06 15:44:12.0500,-0.125,-1.653,0.978,2.7,2.31,-6.42,0.58,1.59,6.71
2022-12-06 15:44:12.0590,0.502,-2.322,1.1,-1.52,9.34,-9.31,-0.19,-0.69,5.54
2022-12-06 15:44:12.0730,1.535,-2.539,0.854,-10.09,14.45,-9.37,-0.61,-1.91,4.03
2022-12-06 15:44:12.0840,2.674,-2.2,0.296,-21.19,14.92,-5.45,-0.52,-1.69,3.51
2022-12-06 15:44:12.0910,3.399,-1.23,-0.242,-32.34,9.04,0.28,-0.21,-1.11,3.73
2022-12-06 15:44:12.1010,2.529,-0.318,-0.524,-34.72,-1.29,4.71,0.27,-1.39,3.26
2022-12-06 15:44:12.1110,1.148,-0.168,-0.354,-22.25,-7.65,6.27,0.03,-2.04,1.41
2022-12-06 15:44:12.1210,0.455,-0.498,-0.024,-10.85,-6.57,3.07,-0.61,-2.51,-0.96
2022-12-06 15:44:12.1310,0.74,-0.634,0.005,-7.34,-3.38,1.03,-0.9,-2.65,-2.33
2022-12-06 15:44:12.1410,1.781,-0.4,-0.045,-13.53,-3.68,1.38,-0.85,-1.96,-2.35
2022-12-06 15:44:12.1510,2.416,-0.187,0.033,-23.62,-6.59,1.32,-0.92,-1.37,-1.61
2022-12-06 15:44:12.1610,1.741,-0.482,0.027,-24.84,-7.33,0.62,-0.92,-1.37,-1.61
2022-12-06 15:44:12.1710,1.063,-1.741,-0.239,-16.0,-1.51,1.69,1.6,-4.55,-5.0
2022-12-06 15:44:12.1810,0.822,-3.501,0.347,-11.02,14.16,3.24,2.33,-0.07,-5.48
