time,gFx,gFy,gFz,ax,ay,az,wx,wy,wz
2022-12-06 15:33:18.2960,0.014,0.425,-0.943,0.0,0.06,0.31,0.27,-0.18,-0.22
2022-12-06 15:33:18.3030,0.008,0.435,-0.952,0.13,-0.07,0.39,0.27,-0.2,-0.22
2022-12-06 15:33:18.3130,0.016,0.44,-0.956,0.1,-0.18,0.45,0.27,-0.2,-0.23
2022-12-06 15:33:18.3220,0.026,0.442,-0.95,-0.03,-0.24,0.45,0.26,-0.2,-0.23
2022-12-06 15:33:18.3330,0.029,0.438,-0.94,-0.13,-0.26,0.35,0.24,-0.17,-0.23
2022-12-06 15:33:18.3430,0.026,0.435,-0.929,-0.16,-0.23,0.24,0.22,-0.15,-0.21
2022-12-06 15:33:18.3530,0.02,0.437,-0.916,-0.14,-0.24,0.11,0.2,-0.16,-0.2
2022-12-06 15:33:18.3630,0.007,0.435,-0.908,-0.08,-0.27,0.0,0.19,-0.18,-0.18
2022-12-06 15:33:18.3730,-0.003,0.435,-0.898,0.03,-0.26,-0.09,0.19,-0.2,-0.16
2022-12-06 15:33:18.3830,-0.012,0.438,-0.892,0.09,-0.29,-0.19,0.19,-0.21,-0.15
2022-12-06 15:33:18.3930,-0.022,0.443,-0.893,0.16,-0.34,-0.23,0.19,-0.19,-0.13
2022-12-06 15:33:18.4030,-0.028,0.45,-0.898,0.22,-0.43,-0.21,0.19,-0.15,-0.13
2022-12-06 15:33:18.4130,-0.027,0.453,-0.904,0.24,-0.5,-0.16,0.19,-0.11,-0.13
2022-12-06 15:33:18.4230,-0.025,0.453,-0.907,0.2,-0.53,-0.11,0.19,-0.1,-0.13
2022-12-06 15:33:18.4330,-0.025,0.451,-0.909,0.18,-0.54,-0.09,0.2,-0.11,-0.12
2022-12-06 15:33:18.4430,-0.02,0.445,-0.907,0.16,-0.53,-0.1,0.2,-0.12,-0.11
2022-12-06 15:33:18.4530,-0.009,0.432,-0.902,0.06,-0.46,-0.14,0.19,-0.13,-0.11
2022-12-06 15:33:18.4630,0.01,0.418,-0.899,-0.09,-0.33,-0.18,0.17,-0.15,-0.11
2022-12-06 15:33:18.4730,0.024,0.406,-0.891,-0.3,-0.22,-0.23,0.15,-0.17,-0.1
2022-12-06 15:33:18.4830,0.028,0.396,-0.875,-0.41,-0.12,-0.35,0.12,-0.2,-0.09
2022-12-06 15:33:18.4930,0.031,0.391,-0.857,-0.46,-0.05,-0.52,0.09,-0.2,-0.08
2022-12-06 15:33:18.5030,0.036,0.388,-0.844,-0.52,-0.02,-0.7,0.06,-0.17,-0.08
2022-12-06 15:33:18.5130,0.04,0.39,-0.834,-0.58,0.0,-0.8,0.03,-0.11,-0.06
2022-12-06 15:33:18.5230,0.045,0.393,-0.83,-0.63,-0.03,-0.89,0.01,-0.03,-0.04
2022-12-06 15:33:18.5330,0.05,0.399,-0.842,-0.69,-0.07,-0.87,0.02,0.07,-0.01
2022-12-06 15:33:18.5430,0.051,0.407,-0.863,-0.71,-0.15,-0.71,0.02,0.07,-0.01
2022-12-06 15:33:18.5530,0.049,0.403,-0.878,-0.69,-0.2,-0.51,0.11,0.24,0.03
2022-12-06 15:33:18.5630,0.044,0.39,-0.883,-0.64,-0.12,-0.41,0.15,0.27,0.02
2022-12-06 15:33:18.5730,0.037,0.377,-0.881,-0.55,-0.01,-0.39,0.17,0.26,0.0
2022-12-06 15:33:18.5830,0.029,0.365,-0.87,-0.46,0.11,-0.46,0.17,0.23,-0.03
2022-12-06 15:33:18.5940,0.023,0.364,-0.867,-0.36,0.18,-0.56,0.16,0.18,-0.07
2022-12-06 15:33:18.6040,0.027,0.368,-0.872,-0.31,0.14,-0.56,0.15,0.13,-0.11
2022-12-06 15:33:18.6140,0.037,0.376,-0.885,-0.39,0.09,-0.5,0.16,0.09,-0.12
2022-12-06 15:33:18.6240,0.044,0.398,-0.921,-0.47,-0.05,-0.29,0.19,0.08,-0.12
2022-12-06 15:33:18.6340,0.05,0.423,-0.961,-0.54,-0.31,0.1,0.25,0.12,-0.09
2022-12-06 15:33:18.6440,0.048,0.445,-0.987,-0.56,-0.57,0.43,0.31,0.21,-0.05
2022-12-06 15:33:18.6540,0.04,0.466,-1.013,-0.49,-0.83,0.65,0.4,0.3,-0.01
2022-12-06 15:33:18.6640,0.034,0.465,-1.038,-0.38,-1.01,0.9,0.5,0.37,0.03
2022-12-06 15:33:18.6740,0.06,0.458,-1.054,-0.37,-0.99,1.1,0.6,0.38,0.1
2022-12-06 15:33:18.6840,0.068,0.461,-1.06,-0.63,-1.02,1.2,0.68,0.31,0.14
2022-12-06 15:33:18.6940,0.049,0.458,-1.07,-0.5,-1.11,1.22,0.75,0.19,0.15
2022-12-06 15:33:18.7040,0.044,0.433,-1.078,-0.34,-1.07,1.31,0.82,0.04,0.18
2022-12-06 15:33:18.7140,0.058,0.411,-1.077,-0.36,-0.88,1.33,0.9,-0.11,0.23
2022-12-06 15:33:18.7240,0.079,0.405,-1.063,-0.54,-0.81,1.24,0.97,-0.26,0.3
2022-12-06 15:33:18.7340,0.101,0.415,-1.056,-0.77,-0.9,1.07,1.07,-0.39,0.38
2022-12-06 15:33:18.7440,0.124,0.428,-1.05,-1.02,-1.14,1.01,1.16,-0.49,0.49
2022-12-06 15:33:18.7540,0.13,0.43,-1.026,-1.25,-1.34,0.84,1.25,-0.56,0.58
2022-12-06 15:33:18.7640,0.069,0.432,-1.008,-1.18,-1.46,0.57,1.34,-0.64,0.6
2022-12-06 15:33:18.7740,0.018,0.437,-0.993,-0.43,-1.65,0.37,1.41,-0.74,0.61
2022-12-06 15:33:18.7840,0.053,0.416,-0.983,-0.39,-1.75,0.2,1.47,-0.83,0.63
2022-12-06 15:33:18.7940,0.064,0.406,-0.976,-0.82,-1.67,0.09,1.5,-0.87,0.63
2022-12-06 15:33:18.8040,0.047,0.399,-0.948,-0.81,-1.75,-0.04,1.5,-0.87,0.61
2022-12-06 15:33:18.8140,0.044,0.398,-0.898,-0.77,-1.83,-0.47,1.48,-0.83,0.55
2022-12-06 15:33:18.8240,0.052,0.394,-0.868,-0.84,-1.97,-0.96,1.44,-0.72,0.49
2022-12-06 15:33:18.8340,0.064,0.376,-0.874,-1.0,-2.03,-1.13,1.43,-0.56,0.45
2022-12-06 15:33:18.8440,0.079,0.341,-0.881,-1.17,-1.91,-1.06,1.44,-0.36,0.43
2022-12-06 15:33:18.8540,0.089,0.306,-0.885,-1.32,-1.69,-1.02,1.45,-0.12,0.43
2022-12-06 15:33:18.8640,0.096,0.277,-0.885,-1.41,-1.51,-1.02,1.47,0.15,0.43
2022-12-06 15:33:18.8740,0.102,0.252,-0.886,-1.44,-1.38,-1.04,1.44,0.43,0.44
2022-12-06 15:33:18.8840,0.102,0.222,-0.891,-1.43,-1.27,-1.03,1.37,0.73,0.42
2022-12-06 15:33:18.8950,0.09,0.178,-0.906,-1.3,-1.05,-0.98,1.26,1.01,0.37
2022-12-06 15:33:18.9050,0.071,0.134,-0.928,-1.03,-0.7,-0.81,1.16,1.25,0.32
2022-12-06 15:33:18.9150,0.058,0.108,-0.96,-0.72,-0.44,-0.57,1.06,1.43,0.3
2022-12-06 15:33:18.9250,0.042,0.1,-0.995,-0.46,-0.36,-0.25,0.98,1.55,0.28
2022-12-06 15:33:18.9350,0.003,0.111,-1.029,-0.08,-0.44,0.09,0.93,1.63,0.24
2022-12-06 15:33:18.9450,-0.047,0.13,-1.053,0.55,-0.69,0.41,0.9,1.67,0.19
2022-12-06 15:33:18.9550,-0.07,0.14,-1.064,1.13,-0.94,0.59,0.9,1.68,0.13
2022-12-06 15:33:18.9650,-0.067,0.135,-1.084,1.4,-1.08,0.7,0.95,1.64,0.1
2022-12-06 15:33:18.9750,-0.059,0.11,-1.116,1.49,-1.06,0.98,1.02,1.55,0.08
2022-12-06 15:33:18.9850,-0.064,0.076,-1.131,1.59,-0.86,1.28,1.09,1.45,0.04
2022-12-06 15:33:18.9950,-0.076,0.054,-1.12,1.82,-0.67,1.32,1.09,1.45,0.04
2022-12-06 15:33:19.0050,-0.08,0.04,-1.111,2.07,-0.59,1.21,1.11,1.19,-0.12
2022-12-06 15:33:19.0150,-0.057,0.024,-1.103,2.12,-0.57,1.17,1.02,1.07,-0.22
2022-12-06 15:33:19.0250,-0.026,0.011,-1.077,1.94,-0.5,1.04,1.02,1.07,-0.22
2022-12-06 15:33:19.0350,0.003,0.002,-1.046,1.72,-0.46,0.77,0.73,0.82,-0.43
2022-12-06 15:33:19.0450,0.026,-0.006,-1.025,1.53,-0.44,0.51,0.56,0.67,-0.51
2022-12-06 15:33:19.0550,0.045,-0.015,-1.01,1.39,-0.39,0.34,0.42,0.51,-0.56
2022-12-06 15:33:19.0650,0.058,-0.021,-1.006,1.26,-0.35,0.24,0.32,0.34,-0.6
2022-12-06 15:33:19.0750,0.055,-0.036,-1.018,1.21,-0.27,0.26,0.25,0.17,-0.63
2022-12-06 15:33:19.0850,0.04,-0.049,-1.034,1.31,-0.14,0.43,0.21,-0.01,-0.66
2022-12-06 15:33:19.0950,0.014,-0.07,-1.037,1.48,0.02,0.53,0.19,-0.21,-0.68
2022-12-06 15:33:19.1050,-0.028,-0.086,-1.035,1.78,0.2,0.53,0.17,-0.43,-0.7
2022-12-06 15:33:19.1150,-0.063,-0.107,-1.032,2.16,0.36,0.49,0.17,-0.43,-0.7
2022-12-06 15:33:19.1250,-0.076,-0.145,-1.038,2.35,0.61,0.48,0.15,-0.88,-0.69
2022-12-06 15:33:19.1350,-0.079,-0.207,-1.044,2.32,1.07,0.53,0.15,-1.09,-0.61
2022-12-06 15:33:19.1450,-0.092,-0.268,-1.05,2.28,1.7,0.58,0.15,-1.28,-0.48
2022-12-06 15:33:19.1550,-0.127,-0.333,-1.036,2.32,2.29,0.57,0.17,-1.43,-0.34
2022-12-06 15:33:19.1650,-0.175,-0.372,-1.009,2.64,2.89,0.35,0.19,-1.5,-0.22
2022-12-06 15:33:19.1750,-0.173,-0.33,-0.962,2.83,3.0,0.01,0.2,-1.48,-0.16
2022-12-06 15:33:19.1850,-0.108,-0.244,-0.936,2.43,2.31,-0.47,0.19,-1.35,-0.15
2022-12-06 15:33:19.1950,-0.062,-0.173,-0.944,1.58,1.46,-0.58,0.2,-1.17,-0.16
2022-12-06 15:33:19.2050,-0.062,-0.148,-0.969,1.27,0.88,-0.42,0.23,-0.97,-0.19
2022-12-06 15:33:19.2150,-0.067,-0.179,-0.969,1.21,0.85,-0.23,0.25,-0.77,-0.21
2022-12-06 15:33:19.2260,-0.075,-0.213,-0.966,1.21,1.21,-0.31,0.25,-0.77,-0.21
2022-12-06 15:33:19.2360,-0.076,-0.246,-0.979,1.22,1.46,-0.26,0.28,-0.48,-0.2
2022-12-06 15:33:19.2460,-0.061,-0.291,-0.97,1.12,1.85,-0.17,0.28,-0.48,-0.2
2022-12-06 15:33:19.2560,-0.062,-0.308,-0.952,0.98,2.18,-0.35,0.28,-0.29,-0.08
2022-12-06 15:33:19.2660,-0.072,-0.294,-0.972,1.01,2.2,-0.41,0.3,-0.24,-0.04
2022-12-06 15:33:19.2760,-0.082,-0.264,-1.016,1.1,1.96,-0.09,0.34,-0.2,-0.01
2022-12-06 15:33:19.2860,-0.088,-0.239,-1.049,1.16,1.61,0.36,0.39,-0.17,0.01
2022-12-06 15:33:19.2960,-0.083,-0.24,-1.038,1.18,1.43,0.53,0.43,-0.13,0.04
2022-12-06 15:33:19.3060,-0.063,-0.242,-1.003,1.05,1.43,0.29,0.43,-0.13,0.04
2022-12-06 15:33:19.3160,-0.041,-0.232,-0.989,0.82,1.36,-0.01,0.48,-0.07,0.16
2022-12-06 15:33:19.3260,-0.035,-0.219,-0.99,0.64,1.18,-0.05,0.51,-0.05,0.23
2022-12-06 15:33:19.3360,-0.039,-0.211,-0.98,0.64,1.03,-0.06,0.53,-0.07,0.28
2022-12-06 15:33:19.3460,-0.04,-0.194,-0.964,0.66,0.88,-0.18,0.51,-0.09,0.32
2022-12-06 15:33:19.3560,-0.044,-0.174,-0.954,0.65,0.63,-0.33,0.5,-0.11,0.35
2022-12-06 15:33:19.3660,-0.056,-0.165,-0.95,0.7,0.43,-0.39,0.5,-0.14,0.36
2022-12-06 15:33:19.3760,-0.077,-0.164,-0.936,0.84,0.31,-0.44,0.49,-0.19,0.38
2022-12-06 15:33:19.3860,-0.099,-0.173,-0.891,1.04,0.31,-0.68,0.46,-0.24,0.41
2022-12-06 15:33:19.3960,-0.111,-0.177,-0.836,1.18,0.34,-1.18,0.39,-0.28,0.44
2022-12-06 15:33:19.4060,-0.127,-0.18,-0.777,1.27,0.34,-1.72,0.29,-0.33,0.46
2022-12-06 15:33:19.4160,-0.142,-0.192,-0.704,1.39,0.36,-2.35,0.13,-0.38,0.48
2022-12-06 15:33:19.4260,-0.123,-0.196,-0.682,1.44,0.5,-3.0,0.13,-0.38,0.48
2022-12-06 15:33:19.4370,-0.064,-0.176,-0.725,0.98,0.43,-2.87,-0.16,-0.43,0.59
2022-12-06 15:33:19.4460,-0.056,-0.169,-0.736,0.45,0.27,-2.5,-0.31,-0.45,0.64
2022-12-06 15:33:19.4570,-0.089,-0.17,-0.758,0.55,0.3,-2.51,-0.4,-0.45,0.68
2022-12-06 15:33:19.4660,-0.132,-0.138,-0.922,0.84,0.26,-1.88,-0.4,-0.45,0.68
2022-12-06 15:33:19.4760,-0.215,-0.105,-1.173,1.33,-0.11,0.31,-0.06,-0.38,0.64
2022-12-06 15:33:19.4870,-0.294,-0.1,-1.143,2.19,-0.32,2.12,-0.01,-0.27,0.56
2022-12-06 15:33:19.4970,-0.31,-0.1,-0.965,2.73,-0.32,0.75,-0.06,-0.19,0.48
2022-12-06 15:33:19.5070,-0.262,-0.109,-0.917,2.62,-0.3,-0.57,-0.09,-0.1,0.45
2022-12-06 15:33:19.5170,-0.184,-0.121,-0.922,1.97,-0.16,-0.73,-0.1,0.01,0.47
2022-12-06 15:33:19.5270,-0.133,-0.127,-0.901,1.24,-0.05,-0.7,-0.13,0.11,0.51
2022-12-06 15:33:19.5370,-0.121,-0.117,-0.853,0.9,-0.02,-1.09,-0.19,0.19,0.55
2022-12-06 15:33:19.5470,-0.141,-0.087,-0.853,0.92,-0.17,-1.42,-0.24,0.24,0.57
2022-12-06 15:33:19.5570,-0.186,-0.049,-0.884,1.24,-0.48,-1.27,-0.28,0.25,0.56
2022-12-06 15:33:19.5670,-0.228,-0.01,-0.92,1.73,-0.84,-0.94,-0.31,0.26,0.53
2022-12-06 15:33:19.5770,-0.239,0.022,-0.942,2.07,-1.16,-0.6,-0.35,0.27,0.48
2022-12-06 15:33:19.5870,-0.211,0.039,-0.944,2.05,-1.41,-0.5,-0.4,0.28,0.43
2022-12-06 15:33:19.5970,-0.157,0.041,-0.946,1.69,-1.45,-0.48,-0.46,0.28,0.4
2022-12-06 15:33:19.6070,-0.088,0.038,-0.93,1.11,-1.4,-0.53,-0.54,0.26,0.39
2022-12-06 15:33:19.6170,-0.045,0.032,-0.921,0.49,-1.3,-0.7,-0.64,0.2,0.37
2022-12-06 15:33:19.6270,-0.047,0.051,-0.919,0.25,-1.23,-0.75,-0.64,0.2,0.37
2022-12-06 15:33:19.6380,-0.076,0.096,-0.908,0.4,-1.45,-0.8,-0.92,-0.07,0.23
2022-12-06 15:33:19.6470,-0.132,0.135,-0.983,0.75,-1.83,-0.76,-0.99,-0.2,0.12
2022-12-06 15:33:19.6570,-0.183,0.142,-1.034,1.35,-1.98,0.19,-1.08,-0.3,0.02
2022-12-06 15:33:19.6670,-0.182,0.132,-1.059,1.62,-1.88,0.38,-1.11,-0.35,-0.05
2022-12-06 15:33:19.6770,-0.159,0.111,-1.101,1.47,-1.61,0.76,-1.11,-0.34,-0.1
2022-12-06 15:33:19.6870,-0.136,0.1,-1.114,1.18,-1.31,1.08,-1.11,-0.34,-0.1
2022-12-06 15:33:19.6990,-0.117,0.108,-1.105,0.96,-1.16,1.1,-1.09,-0.13,-0.19
2022-12-06 15:33:19.7080,-0.101,0.126,-1.069,0.76,-1.18,0.93,-1.13,0.03,-0.25
2022-12-06 15:33:19.7170,-0.113,0.144,-1.034,0.7,-1.25,0.51,-1.18,0.17272064089775085,-0.25
2022-12-06 15:33:19.7280,-0.128,0.165,-1.036,0.91,-1.31,0.31,-1.24,0.3,-0.45
2022-12-06 15:33:19.7370,-0.109,0.195,-1.064,0.97,-1.44,0.43,-1.28,0.4,-0.55
2022-12-06 15:33:19.7500,-0.076,0.217,-1.099,0.75,-1.59,0.78,-1.32,0.44,-0.63
2022-12-06 15:33:19.7570,-0.022,0.242,-1.122,0.41,-1.67,1.08,-1.32,0.44,-0.63
2022-12-06 15:33:19.7680,0.053,0.258,-1.148,-0.2,-1.78,1.31,-1.41,0.33,-0.61
2022-12-06 15:33:19.7770,0.116,0.245,-1.182,-0.89,-1.7,1.59,-1.44,0.2,-0.52
2022-12-06 15:33:19.7870,0.159,0.223,-1.219,-1.42,-1.35,1.99,-1.42,0.01,-0.41
2022-12-06 15:33:19.7990,0.19,0.21,-1.228,-1.81,-1.03,2.3,-1.38,-0.2,-0.29
2022-12-06 15:33:19.8070,0.177,0.197,-1.207,-2.03,-0.77,2.24,-1.32,-0.42,-0.19
2022-12-06 15:33:19.8180,0.134,0.205,-1.198,-1.79,-0.57,2.08,-1.32,-0.42,-0.19
2022-12-06 15:33:19.8280,0.09,0.22,-1.181,-1.42,-0.6,2.02,-1.15,-0.9,-0.01
2022-12-06 15:33:19.8380,0.068,0.215,-1.165,-1.13,-0.59,1.82,-1.05,-1.13,0.07
2022-12-06 15:33:19.8490,0.072,0.189,-1.165,-1.15,-0.34,1.79,-0.94,-1.31,0.13
2022-12-06 15:33:19.8580,0.076,0.166,-1.14,-1.35,0.02,1.73,-0.87,-1.42,0.13
2022-12-06 15:33:19.8680,0.067,0.152,-1.111,-1.47,0.3,1.47,-0.84,-1.46,0.08
2022-12-06 15:33:19.8780,0.045,0.141,-1.069,-1.49,0.49,1.17,-0.83,-1.41,-0.04
2022-12-06 15:33:19.8880,-0.014,0.128,-1.041,-1.3,0.69,0.81,-0.79,-1.33,-0.22
2022-12-06 15:33:19.8990,-0.094,0.131,-1.02,-0.73,0.85,0.63,-0.72,-1.25,-0.4
2022-12-06 15:33:19.9080,-0.161,0.138,-0.974,-0.09,0.84,0.36,-0.62,-1.18,-0.56
2022-12-06 15:33:19.9180,-0.189,0.138,-0.933,0.34,0.83,-0.07,-0.48,-1.15,-0.66
2022-12-06 15:33:19.9280,-0.185,0.12,-0.901,0.32,0.92,-0.41,-0.33,-1.12,-0.74
2022-12-06 15:33:19.9380,-0.203,0.092,-0.873,0.19,1.16,-0.67,-0.17,-1.13,-0.79
2022-12-06 15:33:19.9480,-0.226,0.083,-0.842,0.32,1.4,-0.93,-0.02,-1.14,-0.83
2022-12-06 15:33:19.9580,-0.223,0.086,-0.801,0.33,1.4,-1.25,0.11,-1.13,-0.84
2022-12-06 15:33:19.9680,-0.194,0.084,-0.762,0.09,1.34,-1.65,0.21,-1.06,-0.81
2022-12-06 15:33:19.9780,-0.158,0.06,-0.735,-0.39,1.39,-1.98,0.3,-0.92,-0.75
2022-12-06 15:33:19.9880,-0.157,0.023,-0.727,-0.74,1.66,-2.17,0.4,-0.75,-0.68
2022-12-06 15:33:19.9980,-0.18,0.014,-0.738,-0.7,1.9,-2.16,0.52,-0.54,-0.6
2022-12-06 15:33:20.0080,-0.204,0.027,-0.739,-0.5,1.82,-2.04,0.52,-0.54,-0.6
2022-12-06 15:33:20.0180,-0.208,0.04,-0.714,-0.35,1.59,-2.14,0.72,-0.12,-0.42
2022-12-06 15:33:20.0280,-0.193,0.034,-0.686,-0.42,1.45,-2.44,0.78,0.05,-0.29
2022-12-06 15:33:20.0380,-0.167,0.02,-0.666,-0.58,1.46,-2.71,0.85,0.2,-0.14
2022-12-06 15:33:20.0480,-0.131,-0.009,-0.664,-0.89,1.57,-2.86,0.92,0.33,0.01
2022-12-06 15:33:20.0580,-0.125,-0.033,-0.654,-1.13,1.79,-2.9,0.98,0.4,0.15
2022-12-06 15:33:20.0680,-0.161,-0.045,-0.633,-1.0,1.87,-3.09,0.98,0.4,0.15
2022-12-06 15:33:20.0790,-0.213,-0.049,-0.625,-0.49,1.88,-3.29,1.04,0.4,0.27
2022-12-06 15:33:20.0880,-0.232,-0.057,-0.634,-0.02,1.8,-3.32,1.09,0.41,0.29
2022-12-06 15:33:20.0990,-0.22,-0.07,-0.653,0.08,1.83,-3.22,1.18,0.46,0.34
2022-12-06 15:33:20.1090,-0.194,-0.077,-0.665,-0.06,1.82,-3.03,1.28,0.53,0.39
2022-12-06 15:33:20.1180,-0.175,-0.079,-0.646,-0.26,1.76,-3.07,1.38,0.62,0.46
2022-12-06 15:33:20.1290,-0.168,-0.085,-0.621,-0.32,1.65,-3.34,1.47,0.69,0.51
2022-12-06 15:33:20.1390,-0.161,-0.099,-0.61,-0.31,1.61,-3.56,1.59,0.73,0.55
2022-12-06 15:33:20.1490,-0.155,-0.117,-0.614,-0.3,1.62,-3.64,1.75,0.72,0.56
2022-12-06 15:33:20.1590,-0.147,-0.142,-0.64,-0.3,1.64,-3.54,1.95,0.64,0.55
2022-12-06 15:33:20.1690,-0.153,-0.175,-0.647,-0.29,1.74,-3.3,2.16,0.52,0.51
2022-12-06 15:33:20.1790,-0.163,-0.2,-0.607,-0.13,1.86,-3.43,2.33,0.42,0.45
2022-12-06 15:33:20.1900,-0.15,-0.211,-0.57,-0.06,1.79,-3.89,2.48,0.4,0.39
2022-12-06 15:33:20.1990,-0.114,-0.248,-0.581,-0.25,1.75,-4.08,2.65,0.44,0.35
2022-12-06 15:33:20.2090,-0.066,-0.281,-0.587,-0.61,1.87,-3.9,2.82,0.53,0.35
2022-12-06 15:33:20.2190,-0.025,-0.307,-0.577,-1.04,1.89,-3.93,2.97,0.63,0.36
2022-12-06 15:33:20.2290,-0.012,-0.325,-0.57,-1.28,1.82,-3.99,3.09,0.68,0.37
2022-12-06 15:33:20.2400,-0.017,-0.358,-0.587,-1.28,1.72,-3.98,3.22,0.66,0.35
2022-12-06 15:33:20.2490,-0.024,-0.411,-0.615,-1.12,1.84,-3.66,3.33,0.58,0.32
2022-12-06 15:33:20.2590,0.002,-0.46,-0.605,-1.12,2.05,-3.45,3.4,0.5,0.33
2022-12-06 15:33:20.2690,0.042,-0.504,-0.589,-1.43,2.16,-3.56,3.44,0.48,0.36
2022-12-06 15:33:20.2790,0.062,-0.556,-0.602,-1.72,2.32,-3.53,3.48,0.53,0.41
2022-12-06 15:33:20.2890,0.094,-0.607,-0.623,-1.86,2.5,-3.25,3.54,0.66,0.47
2022-12-06 15:33:20.2990,0.139,-0.66,-0.633,-2.24,2.7,-2.95,3.54,0.66,0.47
2022-12-06 15:33:20.3090,0.164,-0.695,-0.633,-2.54,2.85,-2.79,3.58,0.83,0.54
2022-12-06 15:33:20.3190,0.177,-0.729,-0.63,-2.67,2.84,-2.67,3.58,1.1,0.62
2022-12-06 15:33:20.3290,0.172,-0.773,-0.636,-2.65,2.91,-2.55,3.57,1.11,0.61
2022-12-06 15:33:20.3400,0.176,-0.817,-0.661,-2.54,3.05,-2.25,3.57,1.03,0.56
2022-12-06 15:33:20.3490,0.193,-0.852,-0.67,-2.57,3.14,-1.86,3.57,0.88,0.5
2022-12-06 15:33:20.3590,0.221,-0.904,-0.673,-2.74,3.23,-1.67,3.58,0.75,0.45
2022-12-06 15:33:20.3690,0.249,-0.962,-0.694,-3.01,3.51,-1.37,3.61,0.67,0.4
2022-12-06 15:33:20.3790,0.264,-1.007,-0.713,-3.21,3.74,-0.93,3.65,0.61,0.36
2022-12-06 15:33:20.3890,0.27,-1.055,-0.706,-3.28,3.9,-0.63,3.67,0.55,0.31
2022-12-06 15:33:20.3990,0.269,-1.098,-0.694,-3.31,4.1,-0.5,3.67,0.44,0.23
2022-12-06 15:33:20.4090,0.254,-1.133,-0.686,-3.21,4.22,-0.39,3.67,0.28,0.14
2022-12-06 15:33:20.4190,0.262,-1.173,-0.69,-3.1,4.28,-0.17,3.69,0.09,0.07
2022-12-06 15:33:20.4300,0.296,-1.233,-0.678,-3.3,4.52,0.14,3.69,-0.07,0.0
2022-12-06 15:33:20.4400,0.324,-1.282,-0.628,-3.66,4.85,0.1,3.66,-0.14,-0.05
2022-12-06 15:33:20.4490,0.35,-1.336,-0.587,-3.89,5.08,-0.11,3.63,-0.1,-0.1
2022-12-06 15:33:20.4600,0.407,-1.416,-0.553,-4.24,5.5,-0.18,3.6,0.07,-0.13
2022-12-06 15:33:20.4700,0.467,-1.499,-0.524,-4.84,6.11,-0.23,3.57,0.32,-0.13
2022-12-06 15:33:20.4800,0.508,-1.577,-0.506,-5.33,6.73,-0.17,3.53,0.61,-0.14
2022-12-06 15:33:20.4900,0.527,-1.643,-0.509,-5.6,7.26,-0.07,3.54,0.94,-0.17
2022-12-06 15:33:20.5000,0.478,-1.666,-0.579,-5.52,7.64,0.65,3.54,0.94,-0.17
2022-12-06 15:33:20.5100,0.447,-1.687,-0.555,-4.85,7.56,1.3,3.71,1.8,-0.41
2022-12-06 15:33:20.5200,0.443,-1.756,-0.577,-4.6,7.82,1.46,3.83,2.16,-0.57
2022-12-06 15:33:20.5300,0.441,-1.819,-0.608,-4.42,8.36,2.13,3.94,2.41,-0.74
2022-12-06 15:33:20.5400,0.447,-1.87,-0.631,-4.25,8.8,2.77,4.05,2.51,-0.91
2022-12-06 15:33:20.5500,0.422,-1.876,-0.679,-4.13,9.08,3.42,4.17,2.57,-1.1
2022-12-06 15:33:20.5600,0.394,-1.828,-0.67,-3.55,8.77,4.23,4.25,2.58,-1.28
2022-12-06 15:33:20.5700,0.393,-1.771,-0.655,-3.26,8.16,4.37,4.3,2.53,-1.42
2022-12-06 15:33:20.5800,0.376,-1.685,-0.66,-3.03,7.47,4.82,4.3,2.45,-1.55
2022-12-06 15:33:20.5900,0.349,-1.582,-0.638,-2.6,6.45,5.2,4.25,2.31,-1.66
2022-12-06 15:33:20.6000,0.338,-1.5,-0.601,-2.18,5.48,5.37,4.13,2.11,-1.74
2022-12-06 15:33:20.6100,0.336,-1.441,-0.555,-1.95,4.75,5.37,3.94,1.84,-1.79
2022-12-06 15:33:20.6200,0.332,-1.401,-0.528,-1.74,4.3,5.36,3.72,1.52,-1.83
2022-12-06 15:33:20.6300,0.323,-1.355,-0.515,-1.52,3.91,5.54,3.48,1.16,-1.84
2022-12-06 15:33:20.6400,0.313,-1.325,-0.503,-1.24,3.56,5.77,3.25,0.78,-1.83
2022-12-06 15:33:20.6510,0.31,-1.3,-0.475,-1.0,3.38,5.93,3.0,0.39,-1.81
2022-12-06 15:33:20.6610,0.307,-1.265,-0.43,-0.81,3.18,5.87,2.74,0.06,-1.76
2022-12-06 15:33:20.6710,0.305,-1.211,-0.361,-0.61,2.86,5.59,2.46,-0.19,-1.68
2022-12-06 15:33:20.6800,0.304,-1.139,-0.293,-0.44,2.32,5.09,2.2,-0.36,-1.58
2022-12-06 15:33:20.6900,0.3,-1.068,-0.245,-0.27,1.69,4.7,1.98,-0.41,-1.46
2022-12-06 15:33:20.7010,0.292,-0.985,-0.182,-0.09,1.05,4.36,1.77,-0.37,-1.34
2022-12-06 15:33:20.7110,0.275,-0.923,-0.13,0.16,0.3,3.86,1.61,-0.27,-1.23
2022-12-06 15:33:20.7210,0.265,-0.884,-0.108,0.43,-0.05,3.65,1.49,-0.09,-1.12
2022-12-06 15:33:20.7310,0.266,-0.831,-0.048,0.55,-0.47,3.46,1.38,0.14,-1.02
2022-12-06 15:33:20.7410,0.246,-0.816,-0.022,0.71,-0.79,2.98,1.38,0.14,-1.02
2022-12-06 15:33:20.7510,0.232,-0.793,-0.015,0.97,-0.84,3.08,1.31,0.41,-0.94
2022-12-06 15:33:20.7610,0.222,-0.78,0.026,1.14,-1.02,2.95,1.19,0.99,-0.86
2022-12-06 15:33:20.7710,0.227,-0.789,0.037,1.25,-0.99,2.8,1.12,1.27,-0.84
2022-12-06 15:33:20.7810,0.235,-0.803,0.058,1.18,-0.8,2.81,1.04,1.54,-0.83
2022-12-06 15:33:20.7910,0.224,-0.81,0.056,1.17,-0.61,2.79,0.98,1.79,-0.85
2022-12-06 15:33:20.8010,0.197,-0.796,0.027,1.37,-0.55,3.1,0.96,2.03,-0.89
2022-12-06 15:33:20.8110,0.187,-0.779,0.006,1.6,-0.67,3.51,0.96,2.23,-0.92
2022-12-06 15:33:20.8210,0.192,-0.788,-0.022,1.61,-0.69,3.88,0.98,2.37,-0.95
2022-12-06 15:33:20.8310,0.191,-0.818,-0.058,1.56,-0.43,4.36,0.98,2.42,-0.98
2022-12-06 15:33:20.8410,0.18,-0.842,-0.085,1.58,-0.06,4.88,1.01,2.42,-0.98
2022-12-06 15:33:20.8510,0.151,-0.848,-0.096,1.73,0.22,5.24,1.01,2.22,-1.07
2022-12-06 15:33:20.8610,0.118,-0.847,-0.095,2.08,0.24,5.41,0.99,2.01,-1.13
2022-12-06 15:33:20.8710,0.124,-0.88,-0.13,2.27,0.5,5.71,0.95,1.75,-1.17
2022-12-06 15:33:20.8810,0.131,-0.876,-0.127,2.17,0.82,6.07,0.88,1.46,-1.19
2022-12-06 15:33:20.8910,0.113,-0.856,-0.127,2.22,0.74,6.12,0.8,1.16,-1.2
2022-12-06 15:33:20.9010,0.083,-0.846,-0.131,2.5,0.66,6.24,0.7,0.86,-1.22
2022-12-06 15:33:20.9110,0.065,-0.845,-0.131,2.83,0.67,6.35,0.6,0.57,-1.23
2022-12-06 15:33:20.9210,0.051,-0.845,-0.124,3.03,0.75,6.38,0.48,0.3,-1.24
2022-12-06 15:33:20.9310,0.027,-0.836,-0.107,3.29,0.79,6.32,0.34,0.06,-1.25
2022-12-06 15:33:20.9410,-0.006,-0.83,-0.091,3.66,0.76,6.16,0.2,-0.15,-1.27
2022-12-06 15:33:20.9510,-0.034,-0.825,-0.071,4.09,0.77,6.02,0.05,-0.32,-1.29
2022-12-06 15:33:20.9610,-0.046,-0.825,-0.056,4.42,0.77,5.77,-0.08,-0.46,-1.3
2022-12-06 15:33:20.9720,-0.062,-0.832,-0.051,4.63,0.86,5.66,-0.19,-0.56,-1.31
2022-12-06 15:33:20.9820,-0.056,-0.859,-0.053,4.92,1.0,5.59,-0.29,-0.64,-1.3
2022-12-06 15:33:20.9920,-0.029,-0.907,-0.05,4.85,1.42,5.54,-0.36,-0.69,-1.26
2022-12-06 15:33:21.0020,-0.005,-0.96,-0.061,4.72,1.95,5.5,-0.41,-0.73,-1.22
2022-12-06 15:33:21.0120,0.006,-1.005,-0.074,4.63,2.5,5.57,-0.43,-0.76,-1.17
2022-12-06 15:33:21.0220,0.005,-1.029,-0.081,4.71,2.9,5.6,-0.43,-0.79,-1.12
2022-12-06 15:33:21.0320,0.001,-1.044,-0.084,4.84,3.12,5.6,-0.44,-0.83,-1.07
2022-12-06 15:33:21.0420,-0.002,-1.05,-0.084,5.0,3.26,5.51,-0.44,-0.88,-1.01
2022-12-06 15:33:21.0520,-0.001,-1.061,-0.088,5.13,3.35,5.47,-0.45,-0.93,-0.95
2022-12-06 15:33:21.0620,0.011,-1.083,-0.085,5.2,3.52,5.39,-0.44,-0.98,-0.85
2022-12-06 15:33:21.0720,0.038,-1.119,-0.095,5.12,3.81,5.32,-0.42,-1.05,-0.73
2022-12-06 15:33:21.0820,0.071,-1.164,-0.106,4.92,4.23,5.34,-0.39,-1.11,-0.58
2022-12-06 15:33:21.0920,0.096,-1.205,-0.12,4.7,4.67,5.37,-0.32,-1.2,-0.42
2022-12-06 15:33:21.1020,0.119,-1.259,-0.147,4.56,5.11,5.46,-0.23,-1.29,-0.26
2022-12-06 15:33:21.1120,0.146,-1.322,-0.18,4.39,5.7,5.67,-0.11,-1.4,-0.11
2022-12-06 15:33:21.1220,0.166,-1.382,-0.21,4.19,6.3,5.9,0.02,-1.55,0.03
2022-12-06 15:33:21.1320,0.183,-1.441,-0.243,4.08,6.89,6.1,0.16,-1.73,0.16
2022-12-06 15:33:21.1420,0.205,-1.497,-0.272,3.96,7.44,6.33,0.29,-1.93,0.29
2022-12-06 15:33:21.1520,0.241,-1.561,-0.298,3.76,8.02,6.5,0.43,-2.15,0.45
2022-12-06 15:33:21.1620,0.277,-1.611,-0.322,3.42,8.61,6.67,0.56,-2.36,0.64
2022-12-06 15:33:21.1720,0.302,-1.645,-0.33,3.15,9.0,6.74,0.66,-2.57,0.87
2022-12-06 15:33:21.1820,0.327,-1.677,-0.33,2.94,9.29,6.68,0.72,-2.77,1.14
2022-12-06 15:33:21.1920,0.358,-1.694,-0.312,2.69,9.52,6.5,0.72,-2.77,1.14
2022-12-06 15:33:21.2020,0.4,-1.697,-0.284,2.33,9.53,6.14,0.7,-3.13,1.83
2022-12-06 15:33:21.2120,0.452,-1.699,-0.25,1.83,9.47,5.7,0.63,-3.27,2.22
2022-12-06 15:33:21.2220,0.498,-1.694,-0.204,1.25,9.35,5.17,0.51,-3.38,2.63
2022-12-06 15:33:21.2330,0.535,-1.675,-0.16,0.72,9.1,4.54,0.36,-3.45,3.05
2022-12-06 15:33:21.2420,0.559,-1.652,-0.122,0.25,8.69,3.96,0.22,-3.48,3.43
2022-12-06 15:33:21.2530,0.589,-1.651,-0.085,-0.15,8.34,3.42,0.08,-3.47,3.81
2022-12-06 15:33:21.2630,0.643,-1.671,-0.038,-0.78,8.21,2.85,-0.08,-3.42,4.17
2022-12-06 15:33:21.2730,0.706,-1.7,0.004,-1.65,8.24,2.17,-0.23,-3.33,4.5
2022-12-06 15:33:21.2830,0.753,-1.727,0.016,-2.55,8.29,1.7,-0.35,-3.2,4.79
2022-12-06 15:33:21.2930,0.781,-1.747,0.023,-3.31,8.33,1.45,-0.35,-3.2,4.79
2022-12-06 15:33:21.3030,0.763,-1.743,0.023,-3.85,8.24,1.22,-0.46,-3.04,5.03
2022-12-06 15:33:21.3130,0.771,-1.744,0.01,-4.08,7.95,1.15,-0.61,-2.7,5.28
2022-12-06 15:33:21.3230,0.782,-1.743,0.0,-4.72,7.83,1.08,-0.66,-2.54,5.34
2022-12-06 15:33:21.3330,0.766,-1.712,-0.024,-5.2,7.58,1.13,-0.66,-2.54,5.34
2022-12-06 15:33:21.3430,0.73,-1.667,-0.044,-5.44,7.04,1.23,-0.77,-2.32,5.3
2022-12-06 15:33:21.3530,0.696,-1.645,-0.058,-5.56,6.58,1.3,-0.77,-2.32,5.3
2022-12-06 15:33:21.3630,0.68,-1.627,-0.06,-5.77,6.33,1.28,-0.85,-2.15,5.12
2022-12-06 15:33:21.3730,0.663,-1.593,-0.069,-6.13,6.08,1.19,-0.87,-2.06,5.03
2022-12-06 15:33:21.3830,0.641,-1.545,-0.086,-6.41,5.66,1.25,-0.88,-1.97,4.93
2022-12-06 15:33:21.3930,0.622,-1.482,-0.087,-6.68,5.15,1.29,-0.88,-1.86,4.85
2022-12-06 15:33:21.4030,0.614,-1.439,-0.076,-6.97,4.56,1.15,-0.89,-1.75,4.78
2022-12-06 15:33:21.4130,0.59,-1.378,-0.064,-7.4,4.27,0.98,-0.93,-1.65,4.69
2022-12-06 15:33:21.4230,0.523,-1.285,-0.057,-7.33,3.46,0.79,-0.96,-1.57,4.58
2022-12-06 15:33:21.4330,0.544,-1.295,-0.05,-7.41,3.02,0.73,-1.04,-1.53,4.49
2022-12-06 15:33:21.4430,0.536,-1.257,-0.002,-8.07,3.21,0.36,-1.13,-1.5,4.38
2022-12-06 15:33:21.4530,0.461,-1.222,0.015,-8.12,2.88,0.0,-1.23,-1.44,4.24
2022-12-06 15:33:21.4630,0.423,-1.165,0.026,-7.79,2.6,-0.31,-1.3,-1.34,4.1
2022-12-06 15:33:21.4730,0.395,-1.112,0.018,-7.93,2.23,-0.34,-1.33,-1.2,3.95
2022-12-06 15:33:21.4830,0.353,-1.043,0.004,-7.9,1.76,-0.37,-1.3,-1.03,3.79
2022-12-06 15:33:21.4930,0.353,-1.021,-0.023,-7.94,1.4,-0.18,-1.24,-0.83,3.66
2022-12-06 15:33:21.5040,0.357,-0.996,-0.022,-8.36,1.42,-0.14,-1.17,-0.63,3.53
2022-12-06 15:33:21.5140,0.324,-0.959,-0.03,-8.55,1.29,-0.15,-1.1,-0.48,3.38
2022-12-06 15:33:21.5230,0.284,-0.925,-0.013,-8.45,1.1,-0.25,-1.03,-0.38,3.21
2022-12-06 15:33:21.5340,0.251,-0.897,-0.021,-8.32,0.99,-0.43,-0.92,-0.32,3.02
2022-12-06 15:33:21.5440,0.236,-0.857,-0.033,-8.29,0.84,-0.33,-0.79,-0.29,2.83
2022-12-06 15:33:21.5530,0.242,-0.829,-0.037,-8.45,0.64,-0.29,-0.63,-0.3,2.67
2022-12-06 15:33:21.5640,0.255,-0.816,-0.038,-8.74,0.6,-0.29,-0.46,-0.34,2.53
2022-12-06 15:33:21.5740,0.268,-0.802,-0.021,-9.08,0.63,-0.34,-0.31,-0.4,2.4
2022-12-06 15:33:21.5840,0.269,-0.788,-0.011,-9.33,0.66,-0.5,-0.31,-0.4,2.4
2022-12-06 15:33:21.5940,0.267,-0.764,-0.002,-9.48,0.64,-0.55,-0.03,-0.54,2.11
2022-12-06 15:33:21.6040,0.259,-0.742,0.004,-9.59,0.53,-0.59,0.09,-0.58,1.93
2022-12-06 15:33:21.6140,0.247,-0.724,0.026,-9.62,0.48,-0.64,0.17,-0.59,1.72
2022-12-06 15:33:21.6240,0.224,-0.708,0.056,-9.59,0.43,-0.86,0.23,-0.58,1.47
2022-12-06 15:33:21.6340,0.192,-0.675,0.087,-9.41,0.33,-1.09,0.24,-0.55,1.19
2022-12-06 15:33:21.6440,0.158,-0.627,0.119,-9.16,-0.01,-1.35,0.23,-0.51,0.88
2022-12-06 15:33:21.6540,0.12,-0.582,0.149,-8.86,-0.39,-1.61,0.2,-0.47,0.55
2022-12-06 15:33:21.6640,0.083,-0.531,0.177,-8.5,-0.85,-1.85,0.16,-0.43,0.21
2022-12-06 15:33:21.6740,0.065,-0.507,0.197,-8.21,-1.26,-2.07,0.12,-0.37,-0.14
2022-12-06 15:33:21.6840,0.062,-0.512,0.204,-8.08,-1.42,-2.19,0.09,-0.33,-0.48
2022-12-06 15:33:21.6940,0.083,-0.547,0.205,-8.08,-1.28,-2.19,0.08,-0.33,-0.79
2022-12-06 15:33:21.7040,0.104,-0.58,0.216,-8.27,-0.99,-2.19,0.07,-0.36,-1.09
2022-12-06 15:33:21.7140,0.113,-0.615,0.23,-8.35,-0.76,-2.28,0.07,-0.36,-1.09
2022-12-06 15:33:21.7240,0.123,-0.644,0.253,-8.34,-0.53,-2.42,0.05,-0.56,-1.65
2022-12-06 15:33:21.7340,0.135,-0.673,0.273,-8.31,-0.41,-2.6,0.06,-0.66,-1.91
2022-12-06 15:33:21.7440,0.164,-0.738,0.274,-8.35,-0.14,-2.68,0.1,-0.71,-2.14
2022-12-06 15:33:21.7540,0.195,-0.81,0.276,-8.51,0.41,-2.61,0.17,-0.71,-2.37
2022-12-06 15:33:21.7640,0.216,-0.88,0.277,-8.6,0.94,-2.59,0.28,-0.64,-2.59
2022-12-06 15:33:21.7740,0.244,-0.974,0.266,-8.61,1.5,-2.49,0.41,-0.5,-2.81
2022-12-06 15:33:21.7840,0.276,-1.086,0.253,-8.72,2.36,-2.29,0.56,-0.29,-3.05
2022-12-06 15:33:21.7940,0.267,-1.141,0.246,-8.67,3.13,-2.13,0.71,-0.02,-3.35
2022-12-06 15:33:21.8040,0.228,-1.149,0.247,-8.14,3.23,-2.04,0.85,0.27,-3.69
2022-12-06 15:33:21.8140,0.209,-1.171,0.241,-7.47,3.09,-2.0,0.97,0.59,-4.05
2022-12-06 15:33:21.8240,0.226,-1.22,0.214,-7.08,3.22,-1.81,1.1,0.92,-4.4
2022-12-06 15:33:21.8340,0.27,-1.277,0.183,-6.98,3.53,-1.46,1.22,1.26,-4.7
2022-12-06 15:33:21.8450,0.32,-1.342,0.149,-7.05,3.91,-1.1,1.32,1.55,-4.96
2022-12-06 15:33:21.8550,0.367,-1.405,0.123,-7.08,4.36,-0.72,1.4,1.78,-5.16
2022-12-06 15:33:21.8640,0.409,-1.452,0.11,-7.06,4.76,-0.46,1.4,1.9424612522125244,-5.31
2022-12-06 15:33:21.8750,0.452,-1.493,0.103,-6.98,5.02,-0.28,1.41,2.02,-5.4
2022-12-06 15:33:21.8850,0.499,-1.537,0.092,-6.93,5.31,-0.16,1.35,2.03,-5.43
2022-12-06 15:33:21.8950,0.536,-1.579,0.066,-6.88,5.65,0.11,1.26,2.03,-5.43
2022-12-06 15:33:21.9050,0.557,-1.6,0.05,-6.66,5.91,0.43,1.15,2.0,-5.39
2022-12-06 15:33:21.9150,0.571,-1.61,0.047,-6.34,6.03,0.63,1.0,1.96,-5.34
2022-12-06 15:33:21.9250,0.568,-1.609,0.046,-5.93,6.06,0.7,0.84,1.94,-5.3
2022-12-06 15:33:21.9350,0.546,-1.605,0.035,-5.32,6.04,0.83,0.68,1.94,-5.27
2022-12-06 15:33:21.9450,0.526,-1.587,0.023,-4.61,6.01,1.01,0.68,1.94,-5.27
2022-12-06 15:33:21.9550,0.51,-1.554,0.009,-3.95,5.81,1.21,0.46,2.03,-5.21
2022-12-06 15:33:21.9650,0.502,-1.514,-0.002,-3.34,5.54,1.41,0.39,2.1,-5.15
2022-12-06 15:33:21.9750,0.502,-1.477,-0.012,-2.85,5.24,1.6,0.34,2.18,-5.06
2022-12-06 15:33:21.9850,0.491,-1.449,-0.024,-2.38,5.02,1.75,0.32,2.26,-4.96
2022-12-06 15:33:21.9950,0.466,-1.436,-0.032,-1.79,4.95,1.99,0.29,2.31,-4.85
2022-12-06 15:33:22.0050,0.449,-1.419,-0.023,-1.16,4.99,2.08,0.26,2.34,-4.72
2022-12-06 15:33:22.0150,0.435,-1.397,-0.032,-0.64,4.96,2.14,0.24,2.39,-4.58
2022-12-06 15:33:22.0250,0.426,-1.377,-0.055,-0.16,4.94,2.42,0.25,2.46,-4.41
2022-12-06 15:33:22.0350,0.419,-1.351,-0.068,0.23,4.91,2.75,0.26,2.54,-4.24
2022-12-06 15:33:22.0450,0.417,-1.34,-0.091,0.6,4.88,3.01,0.29,2.62,-4.04
2022-12-06 15:33:22.0550,0.411,-1.337,-0.117,0.85,5.02,3.45,0.32,2.66,-3.84
2022-12-06 15:33:22.0650,0.384,-1.33,-0.131,1.24,5.18,3.81,0.33,2.64,-3.65
2022-12-06 15:33:22.0750,0.359,-1.328,-0.136,1.73,5.32,4.08,0.29,2.54,-3.46
2022-12-06 15:33:22.0860,0.334,-1.313,-0.132,2.14,5.48,4.24,0.23,2.41,-3.28
2022-12-06 15:33:22.0950,0.31,-1.292,-0.14,2.57,5.45,4.37,0.17,2.3,-3.1
2022-12-06 15:33:22.1060,0.295,-1.286,-0.157,2.93,5.5,4.65,0.12,2.2,-2.92
2022-12-06 15:33:22.1150,0.28,-1.272,-0.171,3.18,5.61,4.94,0.08,2.13,-2.75
2022-12-06 15:33:22.1250,0.248,-1.243,-0.174,3.51,5.58,5.19,0.03,2.05,-2.59
2022-12-06 15:33:22.1350,0.226,-1.231,-0.171,3.92,5.46,5.3,-0.02,1.97,-2.43
2022-12-06 15:33:22.1460,0.22,-1.235,-0.172,4.13,5.6,5.41,-0.08,1.87,-2.28
2022-12-06 15:33:22.1560,0.197,-1.222,-0.164,4.32,5.73,5.51,-0.15,1.76,-2.15
2022-12-06 15:33:22.1650,0.172,-1.208,-0.155,4.64,5.68,5.5,-0.23,1.64,-2.03
2022-12-06 15:33:22.1760,0.154,-1.208,-0.151,4.91,5.74,5.53,-0.3,1.51,-1.91
2022-12-06 15:33:22.1860,0.132,-1.196,-0.148,5.14,5.82,5.57,-0.36,1.4,-1.82
2022-12-06 15:33:22.1960,0.099,-1.166,-0.143,5.45,5.73,5.59,-0.41,1.31,-1.74
2022-12-06 15:33:22.2060,0.071,-1.139,-0.151,5.83,5.52,5.65,-0.43,1.23,-1.67
2022-12-06 15:33:22.2160,0.055,-1.123,-0.16,6.1,5.39,5.81,-0.45,1.15,-1.6
2022-12-06 15:33:22.2260,0.047,-1.111,-0.152,6.27,5.35,5.88,-0.47,1.07,-1.52
2022-12-06 15:33:22.2360,0.051,-1.114,-0.159,6.35,5.34,5.86,-0.49,0.99,-1.42
2022-12-06 15:33:22.2460,0.066,-1.139,-0.169,6.29,5.54,6.01,-0.49,0.91,-1.3
2022-12-06 15:33:22.2560,0.071,-1.163,-0.179,6.19,5.86,6.14,-0.49,0.81,-1.18
2022-12-06 15:33:22.2660,0.069,-1.189,-0.19,6.2,6.15,6.27,-0.49,0.7,-1.05
2022-12-06 15:33:22.2760,0.066,-1.212,-0.199,6.25,6.45,6.38,-0.49,0.55,-0.93
2022-12-06 15:33:22.2860,0.063,-1.23,-0.211,6.31,6.7,6.49,-0.49,0.39,-0.8
2022-12-06 15:33:22.2960,0.07,-1.242,-0.22,6.36,6.86,6.6,-0.49,0.21,-0.65
2022-12-06 15:33:22.3060,0.104,-1.279,-0.23,6.21,7.07,6.67,-0.48,0.02,-0.47
2022-12-06 15:33:22.3160,0.153,-1.338,-0.241,5.83,7.54,6.74,-0.46,-0.17,-0.26
2022-12-06 15:33:22.3260,0.187,-1.386,-0.244,5.37,8.12,6.79,-0.43,-0.37,-0.04
2022-12-06 15:33:22.3360,0.172,-1.404,-0.245,5.23,8.45,6.75,-0.4,-0.57,0.14
2022-12-06 15:33:22.3460,0.157,-1.421,-0.248,5.48,8.54,6.69,-0.35,-0.78,0.31
2022-12-06 15:33:22.3560,0.174,-1.46,-0.256,5.52,8.75,6.67,-0.28,-0.98,0.48
2022-12-06 15:33:22.3660,0.197,-1.496,-0.26,5.3,9.11,6.66,-0.2,-1.19,0.65
2022-12-06 15:33:22.3760,0.217,-1.526,-0.259,5.12,9.37,6.57,-0.14,-1.43,0.84
2022-12-06 15:33:22.3860,0.234,-1.539,-0.25,4.93,9.56,6.43,-0.09,-1.7,1.04
2022-12-06 15:33:22.3960,0.25,-1.535,-0.23,4.8,9.51,6.15,-0.06,-1.99,1.26
2022-12-06 15:33:22.4060,0.285,-1.538,-0.213,4.57,9.39,5.82,-0.03,-2.28,1.53
2022-12-06 15:33:22.4160,0.321,-1.525,-0.181,4.19,9.28,5.43,-0.01,-2.54,1.83
2022-12-06 15:33:22.4260,0.353,-1.503,-0.143,3.83,8.95,4.89,-0.01,-2.76,2.16
2022-12-06 15:33:22.4370,0.392,-1.493,-0.106,3.46,8.6,4.32,0.0,-2.92,2.53
2022-12-06 15:33:22.4460,0.44,-1.493,-0.072,2.95,8.36,3.76,0.02,-3.01,2.91
2022-12-06 15:33:22.4570,0.508,-1.508,-0.049,2.34,8.17,3.23,0.07,-3.03,3.31
2022-12-06 15:33:22.4670,0.603,-1.561,-0.043,1.39,8.23,2.89,0.15,-2.99,3.72
2022-12-06 15:33:22.4770,0.681,-1.62,-0.026,0.29,8.56,2.62,0.23,-2.94,4.1
2022-12-06 15:33:22.4870,0.747,-1.676,-0.01,-0.65,8.86,2.27,0.3,-2.89,4.46
2022-12-06 15:33:22.4970,0.811,-1.726,-0.017,-1.56,9.12,2.02,0.39,-2.82,4.79
2022-12-06 15:33:22.5070,0.869,-1.758,-0.032,-2.52,9.28,2.02,0.46,-2.76,5.06
2022-12-06 15:33:22.5170,0.9,-1.768,-0.038,-3.37,9.23,2.02,0.51,-2.74,5.27
2022-12-06 15:33:22.5270,0.899,-1.752,-0.045,-3.95,8.97,1.97,0.53,-2.76,5.43
2022-12-06 15:33:22.5370,0.878,-1.719,-0.055,-4.27,8.48,1.98,0.52,-2.79,5.53
2022-12-06 15:33:22.5470,0.862,-1.691,-0.063,-4.48,7.91,1.99,0.49,-2.81,5.61
2022-12-06 15:33:22.5570,0.874,-1.679,-0.05,-4.88,7.5,1.95,0.49,-2.79,5.69
2022-12-06 15:33:22.5670,0.897,-1.655,-0.037,-5.58,7.19,1.71,0.33,-2.74,5.77
2022-12-06 15:33:22.5770,0.884,-1.619,-0.033,-6.21,6.73,1.6,0.22,-2.66,5.82
2022-12-06 15:33:22.5870,0.855,-1.598,-0.027,-6.47,6.25,1.47,0.1,-2.55,5.84
2022-12-06 15:33:22.5970,0.846,-1.591,-0.033,-6.82,6.05,1.45,-0.04,-2.45,5.85
2022-12-06 15:33:22.6070,0.823,-1.56,-0.024,-7.22,5.8,1.42,-0.19,-2.36,5.85
2022-12-06 15:33:22.6170,0.832,-1.567,-0.018,-7.6,5.55,1.26,-0.35,-2.28,5.85
2022-12-06 15:33:22.6270,0.819,-1.549,-0.028,-8.28,5.62,1.23,-0.48,-2.21,5.83
2022-12-06 15:33:22.6370,0.775,-1.494,-0.043,-8.52,5.22,1.31,-0.59,-2.14,5.78
2022-12-06 15:33:22.6470,0.726,-1.469,-0.058,-8.6,4.87,1.41,-0.66,-2.05,5.69
2022-12-06 15:33:22.6570,0.669,-1.415,-0.079,-8.64,4.62,1.56,-0.69,-1.93,5.55
2022-12-06 15:33:22.6670,0.61,-1.352,-0.085,-8.54,4.13,1.68,-0.71,-1.83,5.39
2022-12-06 15:33:22.6770,0.56,-1.286,-0.081,-8.51,3.63,1.68,-0.71,-1.75,5.2
2022-12-06 15:33:22.6870,0.514,-1.234,-0.075,-8.49,3.14,1.61,-0.7,-1.68,4.99
2022-12-06 15:33:22.6970,0.477,-1.181,-0.07,-8.5,2.86,1.54,-0.67,-1.59,4.77
2022-12-06 15:33:22.7070,0.435,-1.162,-0.055,-8.59,2.48,1.45,-0.62,-1.55,4.54
2022-12-06 15:33:22.7180,0.4,-1.163,-0.078,-8.47,2.71,1.44,-0.62,-1.55,4.54
2022-12-06 15:33:22.7280,0.402,-1.13,-0.075,-8.66,2.78,1.64,-0.47,-1.61,4.09
2022-12-06 15:33:22.7380,0.408,-1.075,-0.084,-9.05,2.53,1.65,-0.36,-1.68,3.89
2022-12-06 15:33:22.7480,0.411,-1.024,-0.094,-9.39,2.19,1.85,-0.25,-1.73,3.69
2022-12-06 15:33:22.7580,0.412,-0.971,-0.082,-9.69,1.89,1.95,-0.14,-1.72,3.5
2022-12-06 15:33:22.7680,0.388,-0.929,-0.047,-9.89,1.59,1.84,-0.1,-1.68,3.3
2022-12-06 15:33:22.7780,0.348,-0.898,0.002,-9.78,1.43,1.51,-0.1,-1.62,3.08
2022-12-06 15:33:22.7880,0.326,-0.852,0.042,-9.64,1.28,1.14,-0.13,-1.54,2.85
2022-12-06 15:33:22.7980,0.32,-0.786,0.046,-9.66,0.9,0.94,-0.15,-1.43,2.64
2022-12-06 15:33:22.8080,0.337,-0.743,0.04,-9.84,0.46,1.06,-0.16,-1.28,2.45
2022-12-06 15:33:22.8180,0.372,-0.721,0.05,-10.25,0.32,1.15,-0.17,-1.12,2.28
2022-12-06 15:33:22.8280,0.401,-0.698,0.077,-10.74,0.26,1.03,-0.2,-0.94,2.13
2022-12-06 15:33:22.8380,0.402,-0.675,0.081,-11.05,0.16,0.87,-0.22,-0.77,1.96
2022-12-06 15:33:22.8480,0.389,-0.654,0.082,-11.1,0.08,0.91,-0.24,-0.62,1.78
2022-12-06 15:33:22.8580,0.362,-0.626,0.107,-11.03,-0.01,0.86,-0.28,-0.48,1.56
2022-12-06 15:33:22.8680,0.326,-0.587,0.149,-10.79,-0.24,0.52,-0.35,-0.35,1.3
2022-12-06 15:33:22.8780,0.291,-0.565,0.173,-10.51,-0.52,0.16,-0.42,-0.24,1.0
2022-12-06 15:33:22.8880,0.248,-0.562,0.193,-10.2,-0.57,-0.03,-0.49,-0.14,0.63
2022-12-06 15:33:22.8980,0.204,-0.544,0.215,-9.78,-0.61,-0.28,-0.56,-0.09,0.23
2022-12-06 15:33:22.9080,0.183,-0.535,0.228,-9.4,-0.82,-0.49,-0.63,-0.07,-0.17
2022-12-06 15:33:22.9180,0.208,-0.577,0.25,-9.35,-0.77,-0.68,-0.7,-0.06,-0.55
2022-12-06 15:33:22.9280,0.248,-0.648,0.265,-9.66,-0.27,-0.94,-0.74,-0.04,-0.9
2022-12-06 15:33:22.9380,0.269,-0.713,0.257,-9.94,0.35,-1.05,-0.73,0.03,-1.22
2022-12-06 15:33:22.9480,0.269,-0.761,0.239,-9.97,0.81,-0.96,-0.67,0.18,-1.54
2022-12-06 15:33:22.9580,0.258,-0.801,0.221,-9.82,1.11,-0.83,-0.56,0.4,-1.86
2022-12-06 15:33:22.9680,0.243,-0.86,0.209,-9.56,1.38,-0.76,-0.41,0.7,-2.2
2022-12-06 15:33:22.9780,0.223,-0.924,0.189,-9.27,1.88,-0.7,-0.23,1.04,-2.56
2022-12-06 15:33:22.9880,0.189,-0.969,0.168,-8.83,2.23,-0.58,-0.02,1.4,-2.95
2022-12-06 15:33:22.9990,0.164,-1.008,0.157,-8.31,2.44,-0.49,0.19,1.73,-3.34
2022-12-06 15:33:23.0080,0.149,-1.05,0.163,-7.86,2.58,-0.55,0.38,2.02,-3.72
2022-12-06 15:33:23.0190,0.149,-1.108,0.162,-7.5,2.83,-0.71,0.57,2.26,-4.08
2022-12-06 15:33:23.0290,0.166,-1.162,0.151,-7.25,3.16,-0.75,0.76,2.46,-4.39
2022-12-06 15:33:23.0390,0.191,-1.208,0.142,-7.11,3.4,-0.72,0.95,2.64,-4.67
2022-12-06 15:33:23.0490,0.231,-1.273,0.133,-7.02,3.64,-0.68,1.11,2.8,-4.88
2022-12-06 15:33:23.0590,0.29,-1.366,0.122,-7.08,4.17,-0.63,1.27,2.97,-5.04
2022-12-06 15:33:23.0690,0.36,-1.462,0.111,-7.3,4.92,-0.53,1.4,3.14,-5.15
2022-12-06 15:33:23.0790,0.405,-1.532,0.103,-7.49,5.58,-0.44,1.48,3.26,-5.21
2022-12-06 15:33:23.0890,0.417,-1.576,0.099,-7.33,5.98,-0.34,1.49,3.29,-5.26
2022-12-06 15:33:23.0990,0.42,-1.606,0.109,-6.91,6.21,-0.31,1.42,3.24,-5.28
2022-12-06 15:33:23.1090,0.431,-1.616,0.127,-6.5,6.31,-0.43,1.29,3.13,-5.27
2022-12-06 15:33:23.1190,0.444,-1.606,0.121,-6.13,6.24,-0.48,1.12,2.99,-5.23
2022-12-06 15:33:23.1290,0.459,-1.577,0.109,-5.78,5.97,-0.31,0.95,2.87,-5.14
2022-12-06 15:33:23.1390,0.468,-1.537,0.099,-5.46,5.61,-0.15,0.8,2.79,-5.03
2022-12-06 15:33:23.1490,0.46,-1.491,0.079,-5.02,5.13,0.03,0.8,2.79,-5.03
2022-12-06 15:33:23.1590,0.447,-1.465,0.058,-4.46,4.74,0.3,0.63,2.77,-4.79
2022-12-06 15:33:23.1690,0.441,-1.457,0.027,-3.91,4.59,0.61,0.62,2.82,-4.68
2022-12-06 15:33:23.1790,0.423,-1.437,0.016,-3.42,4.54,0.94,0.63,2.88,-4.58
2022-12-06 15:33:23.1890,0.396,-1.416,0.004,-2.77,4.34,1.11,0.65,2.92,-4.51
2022-12-06 15:33:23.1990,0.378,-1.425,-0.009,-2.14,4.32,1.36,0.69,2.94,-4.45
2022-12-06 15:33:23.2090,0.375,-1.432,-0.013,-1.64,4.53,1.56,0.74,2.95,-4.38
2022-12-06 15:33:23.2190,0.379,-1.438,-0.03,-1.28,4.69,1.77,0.8,2.95,-4.3
2022-12-06 15:33:23.2290,0.385,-1.455,-0.052,-0.96,4.9,2.14,0.88,2.94,-4.21
2022-12-06 15:33:23.2390,0.385,-1.474,-0.079,-0.71,5.25,2.52,0.97,2.94,-4.11
2022-12-06 15:33:23.2490,0.357,-1.469,-0.112,-0.29,5.51,3.01,1.08,2.91,-4.01
2022-12-06 15:33:23.2590,0.366,-1.481,-0.134,0.21,5.62,3.52,1.18,2.86,-3.88
2022-12-06 15:33:23.2690,0.372,-1.498,-0.16,0.31,5.99,3.91,1.28,2.78,-3.73
2022-12-06 15:33:23.2800,0.362,-1.513,-0.201,0.59,6.31,4.48,1.37,2.65,-3.57
2022-12-06 15:33:23.2900,0.332,-1.509,-0.214,0.94,6.65,5.05,1.41,2.45,-3.43
2022-12-06 15:33:23.2990,0.285,-1.472,-0.23,1.55,6.64,5.32,1.43,2.2,-3.3
2022-12-06 15:33:23.3100,0.251,-1.453,-0.25,2.15,6.51,5.77,1.42,1.92,-3.18
2022-12-06 15:33:23.3200,0.222,-1.43,-0.254,2.65,6.55,6.08,1.37,1.64,-3.06
2022-12-06 15:33:23.3300,0.203,-1.407,-0.256,3.06,6.52,6.31,1.29,1.38,-2.94
2022-12-06 15:33:23.3400,0.176,-1.369,-0.24,3.42,6.46,6.42,1.17,1.15,-2.81
2022-12-06 15:33:23.3500,0.148,-1.335,-0.22,3.87,6.26,6.37,1.02,0.95,-2.68
2022-12-06 15:33:23.3590,0.127,-1.302,-0.198,4.24,6.15,6.29,1.02,0.95,-2.68
2022-12-06 15:33:23.3690,0.097,-1.259,-0.165,4.63,5.94,6.14,0.64,0.71,-2.38
2022-12-06 15:33:23.3800,0.077,-1.232,-0.126,5.03,5.71,5.85,0.42,0.67,-2.22
2022-12-06 15:33:23.3900,0.062,-1.226,-0.091,5.3,5.67,5.53,0.19,0.7,-2.07
2022-12-06 15:33:23.4000,0.051,-1.234,-0.071,5.53,5.82,5.28,-0.01,0.79,-1.93
2022-12-06 15:33:23.4100,0.035,-1.248,-0.074,5.72,6.01,5.23,-0.17,0.94,-1.81
2022-12-06 15:33:23.4200,0.022,-1.282,-0.087,5.94,6.33,5.34,-0.28,1.11,-1.73
2022-12-06 15:33:23.4300,-0.003,-1.307,-0.11,6.14,6.75,5.57,-0.34,1.26,-1.67
2022-12-06 15:33:23.4400,-0.02,-1.325,-0.134,6.43,7.05,5.86,-0.39,1.36,-1.62
2022-12-06 15:33:23.4500,-0.035,-1.321,-0.157,6.59,7.25,6.16,-0.42,1.41,-1.57
2022-12-06 15:33:23.4600,-0.046,-1.302,-0.194,6.77,7.2,6.49,-0.42,1.41,-1.57
2022-12-06 15:33:23.4700,-0.041,-1.29,-0.225,6.82,7.11,6.93,-0.42,1.26,-1.37
2022-12-06 15:33:23.4800,-0.022,-1.288,-0.244,6.77,7.06,7.23,-0.43,1.07,-1.18
2022-12-06 15:33:23.4900,0.019,-1.322,-0.257,6.49,7.21,7.43,-0.46,0.81,-0.95
2022-12-06 15:33:23.5000,0.058,-1.372,-0.265,6.08,7.68,7.54,-0.5,0.5,-0.68
2022-12-06 15:33:23.5100,0.068,-1.41,-0.278,5.79,8.16,7.62,-0.51,0.18,-0.41
2022-12-06 15:33:23.5200,0.055,-1.448,-0.297,5.83,8.49,7.76,-0.47,-0.12,-0.19
2022-12-06 15:33:23.5300,0.05,-1.509,-0.327,5.96,8.94,7.94,-0.47,-0.12,-0.19
2022-12-06 15:33:23.5400,0.045,-1.548,-0.349,6.0,9.49,8.19,-0.3,-0.69,0.16
2022-12-06 15:33:23.5500,0.034,-1.546,-0.348,6.11,9.7,8.25,-0.21,-0.97,0.32
2022-12-06 15:33:23.5600,0.037,-1.513,-0.327,6.23,9.5,8.08,-0.16,-1.27,0.51
2022-12-06 15:33:23.5700,0.063,-1.47,-0.293,6.15,9.08,7.72,-0.16,-1.58,0.77
2022-12-06 15:33:23.5800,0.124,-1.43,-0.256,5.8,8.59,7.24,-0.18,-1.87,1.13
2022-12-06 15:33:23.5910,0.191,-1.401,-0.222,5.13,8.14,6.75,-0.21,-2.12,1.54
2022-12-06 15:33:23.6000,0.259,-1.39,-0.193,4.56,7.76,6.28,-0.23,-2.31,2.01
2022-12-06 15:33:23.6110,0.347,-1.413,-0.158,3.7,7.66,5.78,-0.23,-2.44,2.49
2022-12-06 15:33:23.6210,0.409,-1.431,-0.134,2.85,7.7,5.31,-0.21,-2.53,2.95
2022-12-06 15:33:23.6310,0.453,-1.443,-0.104,2.22,7.64,4.87,-0.19,-2.57,3.36
2022-12-06 15:33:23.6410,0.479,-1.451,-0.085,1.73,7.51,4.44,-0.16,-2.58,3.69
2022-12-06 15:33:23.6510,0.51,-1.47,-0.072,1.31,7.38,4.12,-0.12,-2.58,3.95
2022-12-06 15:33:23.6610,0.539,-1.487,-0.061,0.79,7.32,3.83,-0.09,-2.6,4.14
2022-12-06 15:33:23.6710,0.558,-1.503,-0.047,0.32,7.23,3.56,-0.08,-2.65,4.28
2022-12-06 15:33:23.6810,0.57,-1.512,-0.026,-0.1,7.15,3.23,-0.09,-2.72,4.37
2022-12-06 15:33:23.6910,0.574,-1.498,-0.013,-0.43,6.91,2.89,-0.12,-2.8,4.42
2022-12-06 15:33:23.7010,0.583,-1.485,-0.003,-0.76,6.53,2.62,-0.15,-2.89,4.47
2022-12-06 15:33:23.7110,0.601,-1.487,-0.004,-1.18,6.22,2.4,-0.15,-2.89,4.47
2022-12-06 15:33:23.7210,0.626,-1.498,0.004,-1.7,6.1,2.27,-0.2,-3.06,4.56
2022-12-06 15:33:23.7310,0.647,-1.482,0.029,-2.29,5.94,1.97,-0.23,-3.12,4.61
2022-12-06 15:33:23.7410,0.647,-1.443,0.054,-2.77,5.49,1.55,-0.28,-3.13,4.65
2022-12-06 15:33:23.7510,0.642,-1.412,0.07,-3.09,4.94,1.21,-0.33,-3.12,4.69
2022-12-06 15:33:23.7610,0.631,-1.388,0.111,-3.41,4.53,0.87,-0.37,-3.06,4.72
2022-12-06 15:33:23.7710,0.637,-1.367,0.08,-3.69,4.17,0.51,-0.37,-3.05,4.76
2022-12-06 15:33:23.7810,0.683,-1.319,0.075,-4.33,3.8,0.74,-0.34,-3.07,4.83
2022-12-06 15:33:23.7910,0.709,-1.311,0.029,-5.24,3.2,0.75,-0.28,-3.08,4.89
2022-12-06 15:33:23.8010,0.675,-1.323,0.013,-5.66,3.32,1.14,-0.21,-3.06,4.91
2022-12-06 15:33:23.8110,0.63,-1.298,0.016,-5.68,3.18,1.11,-0.16,-3.0,4.88
2022-12-06 15:33:23.8210,0.598,-1.279,0.011,-5.7,2.93,1.07,-0.1,-2.9,4.83
2022-12-06 15:33:23.8310,0.573,-1.264,-0.003,-5.88,2.74,1.14,-0.05,-2.77,4.74
2022-12-06 15:33:23.8410,0.537,-1.245,-0.02,-6.02,2.63,1.31,-0.0,-2.62,4.62
2022-12-06 15:33:23.8510,0.49,-1.214,-0.022,-6.03,2.4,1.46,0.02,-2.47,4.48
2022-12-06 15:33:23.8610,0.456,-1.202,-0.005,-6.0,2.2,1.43,0.01,-2.33,4.32
2022-12-06 15:33:23.8710,0.427,-1.201,0.011,-6.08,2.2,1.27,-0.03,-2.19,4.16
2022-12-06 15:33:23.8810,0.408,-1.215,0.018,-6.17,2.32,1.18,-0.06,-2.04,4.0
2022-12-06 15:33:23.8920,0.426,-1.247,0.0,-6.44,2.6,1.24,-0.06,-2.04,4.0
2022-12-06 15:33:23.9020,0.481,-1.276,-0.02,-7.12,3.06,1.48,-0.07,-1.87,3.88
2022-12-06 15:33:23.9120,0.521,-1.272,-0.039,-8.01,3.34,1.72,0.01,-1.52,3.74
2022-12-06 15:33:23.9210,0.509,-1.247,-0.038,-8.52,3.31,1.92,0.05,-1.42,3.65
2022-12-06 15:33:23.9320,0.49,-1.233,-0.026,-8.62,3.2,1.87,0.1,-1.35,3.55
2022-12-06 15:33:23.9420,0.496,-1.25,-0.036,-8.81,3.32,1.89,0.16,-1.29,3.44
2022-12-06 15:33:23.9520,0.506,-1.254,-0.046,-9.18,3.65,2.09,0.16,-1.29,3.44
2022-12-06 15:33:23.9620,0.513,-1.23,-0.041,-9.53,3.72,2.22,0.3,-1.15,3.21
2022-12-06 15:33:23.9720,0.522,-1.19,-0.027,-9.84,3.57,2.19,0.34,-1.07,3.09
2022-12-06 15:33:23.9820,0.539,-1.147,-0.01,-10.2,3.3,2.13,0.34,-1.07,3.09
2022-12-06 15:33:23.9920,0.555,-1.096,0.013,-10.6,3.03,2.02,0.36,-0.82,2.87
2022-12-06 15:33:24.0020,0.563,-1.03,0.037,-10.93,2.63,1.85,0.34,-0.69,2.75
2022-12-06 15:33:24.0120,0.568,-0.949,0.061,-11.2,2.08,1.67,0.29,-0.56,2.61
2022-12-06 15:33:24.0220,0.558,-0.872,0.089,-11.4,1.43,1.49,0.21,-0.46,2.43
2022-12-06 15:33:24.0320,0.531,-0.831,0.127,-11.39,0.89,1.21,0.09,-0.38,2.2
2022-12-06 15:33:24.0420,0.522,-0.871,0.154,-11.28,0.88,0.86,-0.05,-0.3,1.94
2022-12-06 15:33:24.0520,0.546,-0.958,0.146,-11.46,1.67,0.73,-0.15,-0.17,1.66
2022-12-06 15:33:24.0620,0.567,-0.993,0.128,-11.86,2.49,0.88,-0.21,0.01,1.37
2022-12-06 15:33:24.0720,0.551,-0.988,0.119,-12.03,2.73,0.99,-0.24,0.22,1.04
2022-12-06 15:33:24.0820,0.508,-0.952,0.109,-11.82,2.59,1.06,-0.25,0.47,0.65
2022-12-06 15:33:24.0920,0.46,-0.946,0.11,-11.4,2.31,1.07,-0.25,0.47,0.65
2022-12-06 15:33:24.1020,0.412,-0.952,0.114,-10.95,2.36,0.94,-0.22,0.96,-0.32
2022-12-06 15:33:24.1120,0.36,-0.936,0.106,-10.46,2.32,0.88,-0.18,1.18,-0.89
2022-12-06 15:33:24.1220,0.313,-0.919,0.098,-9.88,2.02,0.87,-0.11,1.37,-1.46
2022-12-06 15:33:24.1320,0.293,-0.938,0.092,-9.41,1.86,0.84,-0.03,1.53,-2.01
2022-12-06 15:33:24.1420,0.3,-0.972,0.093,-9.2,2.0,0.77,0.06,1.66,-2.51
2022-12-06 15:33:24.1520,0.316,-1.009,0.096,-9.14,2.18,0.65,0.14,1.76,-2.94
2022-12-06 15:33:24.1620,0.325,-1.041,0.103,-9.09,2.36,0.52,0.21,1.82,-3.33
2022-12-06 15:33:24.1720,0.321,-1.06,0.116,-8.87,2.41,0.33,0.21,1.82,-3.33
2022-12-06 15:33:24.1820,0.318,-1.086,0.126,-8.55,2.39,0.1,0.27,1.94,-3.99
2022-12-06 15:33:24.1920,0.308,-1.112,0.12,-8.21,2.46,-0.01,0.3,2.01,-4.27
2022-12-06 15:33:24.2020,0.295,-1.118,0.119,-7.72,2.45,-0.01,0.32,2.1,-4.53
2022-12-06 15:33:24.2130,0.29,-1.105,0.132,-7.25,2.21,-0.13,0.32,2.19,-4.75
2022-12-06 15:33:24.2230,0.285,-1.083,0.156,-6.81,1.86,-0.37,0.3,2.25,-4.95
2022-12-06 15:33:24.2330,0.276,-1.063,0.18,-6.32,1.43,-0.68,0.25,2.3,-5.12
2022-12-06 15:33:24.2430,0.266,-1.055,0.194,-5.75,1.12,-0.94,0.19,2.34,-5.27
2022-12-06 15:33:24.2530,0.262,-1.046,0.199,-5.21,0.91,-1.09,0.13,2.37,-5.4
2022-12-06 15:33:24.2630,0.246,-1.029,0.198,-4.64,0.65,-1.17,0.09,2.39,-5.52
2022-12-06 15:33:24.2730,0.24,-1.027,0.182,-3.96,0.4,-1.15,0.08,2.43,-5.6
2022-12-06 15:33:24.2830,0.26,-1.053,0.158,-3.47,0.41,-0.97,0.1,2.48,-5.65
2022-12-06 15:33:24.2930,0.283,-1.102,0.131,-3.18,0.72,-0.74,0.1,2.48,-5.65
2022-12-06 15:33:24.3030,0.301,-1.152,0.099,-2.84,1.22,-0.42,0.22,2.57,-5.66
2022-12-06 15:33:24.3130,0.313,-1.205,0.081,-2.47,1.71,-0.14,0.3,2.55,-5.63
2022-12-06 15:33:24.3230,0.314,-1.262,0.061,-1.99,2.31,0.09,0.36,2.49,-5.58
2022-12-06 15:33:24.3330,0.348,-1.315,0.055,-1.59,2.95,0.32,0.41,2.38,-5.49
2022-12-06 15:33:24.3430,0.378,-1.365,0.035,-1.46,3.52,0.46,0.48,2.25,-5.37
2022-12-06 15:33:24.3530,0.391,-1.437,-0.007,-1.19,4.24,0.87,0.57,2.11,-5.25
2022-12-06 15:33:24.3630,0.4,-1.495,-0.042,-0.84,5.08,1.4,0.66,1.97,-5.11
2022-12-06 15:33:24.3730,0.397,-1.51,-0.049,-0.45,5.7,1.76,0.66,1.97,-5.11
2022-12-06 15:33:24.3830,0.371,-1.511,-0.06,0.07,5.92,1.94,0.82,1.65,-4.85
2022-12-06 15:33:24.3930,0.341,-1.529,-0.076,0.77,6.2,2.24,0.89,1.49,-4.75
2022-12-06 15:33:24.4030,0.309,-1.549,-0.092,1.44,6.63,2.51,0.95,1.33,-4.66
2022-12-06 15:33:24.4130,0.265,-1.543,-0.102,2.18,7.01,2.81,0.98,1.17,-4.59
2022-12-06 15:33:24.4230,0.23,-1.51,-0.111,2.94,7.08,3.03,0.99,1.05,-4.52
2022-12-06 15:33:24.4330,0.205,-1.487,-0.126,3.57,7.04,3.27,0.99,0.94,-4.44
2022-12-06 15:33:24.4430,0.187,-1.486,-0.139,4.1,7.16,3.55,0.94,0.82,-4.33
2022-12-06 15:33:24.4530,0.176,-1.491,-0.146,4.55,7.51,3.77,0.85,0.68,-4.18
2022-12-06 15:33:24.4630,0.186,-1.462,-0.139,4.86,7.74,3.91,0.7,0.53,-3.96
2022-12-06 15:33:24.4730,0.212,-1.421,-0.116,4.94,7.64,3.81,0.48,0.37,-3.67
2022-12-06 15:33:24.4830,0.243,-1.39,-0.107,4.87,7.52,3.67,0.25,0.24,-3.32
2022-12-06 15:33:24.4940,0.266,-1.379,-0.101,4.78,7.52,3.66,0.01,0.15,-2.94
2022-12-06 15:33:24.5040,0.288,-1.398,-0.096,4.73,7.71,3.58,-0.2,0.12,-2.56
2022-12-06 15:33:24.5140,0.294,-1.437,-0.098,4.69,8.17,3.56,-0.38,0.14,-2.21
2022-12-06 15:33:24.5240,0.281,-1.48,-0.103,4.82,8.73,3.56,-0.51,0.2,-1.93
2022-12-06 15:33:24.5340,0.242,-1.498,-0.115,5.12,9.23,3.65,-0.6,0.27,-1.71
2022-12-06 15:33:24.5440,0.199,-1.502,-0.12,5.67,9.43,3.71,-0.66,0.35,-1.55
2022-12-06 15:33:24.5540,0.175,-1.498,-0.135,6.07,9.56,3.8,-0.69,0.43,-1.41
2022-12-06 15:33:24.5640,0.151,-1.46,-0.144,6.35,9.5,3.93,-0.7,0.48,-1.28
2022-12-06 15:33:24.5740,0.134,-1.407,-0.144,6.63,9.12,3.99,-0.72,0.49,-1.12
2022-12-06 15:33:24.5840,0.137,-1.361,-0.15,6.77,8.67,4.0,-0.73,0.47,-0.94
2022-12-06 15:33:24.5940,0.16,-1.354,-0.161,6.69,8.36,4.08,-0.74,0.41,-0.72
2022-12-06 15:33:24.6040,0.198,-1.407,-0.169,6.41,8.57,4.19,-0.75,0.27,-0.48
2022-12-06 15:33:24.6140,0.225,-1.474,-0.167,6.06,9.19,4.18,-0.75,0.09,-0.26
2022-12-06 15:33:24.6240,0.221,-1.545,-0.195,5.91,9.88,4.22,-0.7,-0.12,-0.09
2022-12-06 15:33:24.6340,0.178,-1.585,-0.224,6.11,10.47,4.49,-0.59,-0.35,-0.0
2022-12-06 15:33:24.6440,0.147,-1.638,-0.264,6.57,10.83,4.72,-0.59,-0.35,0.05098568648099899
2022-12-06 15:33:24.6540,0.134,-1.662,-0.305,6.77,11.36,5.1,-0.21,-0.85,0.1
2022-12-06 15:33:24.6640,0.113,-1.589,-0.303,6.96,11.21,5.29,-0.03,-1.12,0.19
2022-12-06 15:33:24.6740,0.139,-1.49,-0.262,7.07,10.3,4.98,0.1,-1.4,0.4
2022-12-06 15:33:24.6840,0.213,-1.396,-0.229,6.6,9.3,4.46,0.19,-1.67,0.74
2022-12-06 15:33:24.6940,0.28,-1.303,-0.195,5.84,8.31,4.01,0.25,-1.92,1.18
2022-12-06 15:33:24.7040,0.337,-1.259,-0.161,5.21,7.37,3.52,0.31,-2.14,1.68
2022-12-06 15:33:24.7140,0.419,-1.294,-0.139,4.54,7.14,3.06,0.38,-2.29,2.22
2022-12-06 15:33:24.7240,0.497,-1.323,-0.105,3.56,7.35,2.66,0.46,-2.37,2.76
2022-12-06 15:33:24.7340,0.535,-1.347,-0.072,2.84,7.34,2.14,0.56,-2.36,3.26
2022-12-06 15:33:24.7440,0.576,-1.388,-0.047,2.32,7.39,1.7,0.56,-2.36,3.26
2022-12-06 15:33:24.7550,0.616,-1.414,-0.036,1.67,7.47,1.36,0.82,-2.14,4.1
2022-12-06 15:33:24.7650,0.642,-1.428,-0.043,1.09,7.37,1.23,0.96,-1.96,4.42
2022-12-06 15:33:24.7740,0.658,-1.439,-0.045,0.59,7.18,1.25,1.07,-1.78,4.68
2022-12-06 15:33:24.7840,0.682,-1.447,-0.044,0.1,6.94,1.18,1.15,-1.62,4.9
2022-12-06 15:33:24.7950,0.706,-1.46,-0.056,-0.52,6.75,1.22,1.18,-1.5,5.1
2022-12-06 15:33:24.8040,0.711,-1.454,-0.045,-1.09,6.5,1.29,1.14,-1.45,5.26
2022-12-06 15:33:24.8150,0.712,-1.443,-0.02,-1.5,6.11,1.11,1.03,-1.48,5.41
2022-12-06 15:33:24.8250,0.729,-1.418,0.012,-2.0,5.7,0.82,0.86,-1.57,5.58
2022-12-06 15:33:24.8350,0.759,-1.381,0.031,-2.7,5.12,0.53,0.68,-1.69,5.76
2022-12-06 15:33:24.8450,0.777,-1.348,0.044,-3.48,4.51,0.35,0.5,-1.83,5.94
2022-12-06 15:33:24.8550,0.771,-1.311,0.047,-4.11,3.97,0.24,0.34,-1.98,6.11
2022-12-06 15:33:24.8650,0.743,-1.277,0.055,-4.52,3.38,0.16,0.21,-2.16,6.24
2022-12-06 15:33:24.8750,0.707,-1.278,0.052,-4.77,2.99,0.05,0.1,-2.39,6.34
2022-12-06 15:33:24.8850,0.693,-1.289,0.05,-5.05,2.96,0.07,0.01,-2.64,6.44
2022-12-06 15:33:24.8950,0.703,-1.278,0.063,-5.65,2.9,-0.04,-0.05,-2.87,6.55
2022-12-06 15:33:24.9050,0.712,-1.259,0.042,-6.37,2.66,-0.1,-0.02,-3.04,6.67
2022-12-06 15:33:24.9150,0.764,-1.293,0.018,-7.23,2.59,0.15,0.07,-3.11,6.81
2022-12-06 15:33:24.9250,0.824,-1.357,-0.024,-8.51,3.16,0.43,0.26,-3.09,6.93
2022-12-06 15:33:24.9350,0.807,-1.35,-0.064,-9.57,3.71,0.98,0.47,-2.97,6.99
2022-12-06 15:33:24.9450,0.727,-1.295,-0.07,-9.73,3.46,1.35,0.68,-2.78,6.94
2022-12-06 15:33:24.9550,0.625,-1.249,-0.035,-9.49,3.14,1.41,0.8,-2.54,6.79
2022-12-06 15:33:24.9650,0.488,-1.194,0.013,-8.99,2.87,1.09,0.85,-2.54,6.79
2022-12-06 15:33:24.9750,0.34,-1.143,0.034,-8.09,2.55,0.87,0.85,-2.06,6.12
2022-12-06 15:33:24.9850,0.252,-1.146,0.031,-7.3,2.45,0.91,0.84,-1.82,5.66
2022-12-06 15:33:24.9950,0.246,-1.195,0.016,-7.2,2.98,1.16,0.84,-1.57,5.2
2022-12-06 15:33:25.0050,0.276,-1.199,-0.009,-7.72,3.67,1.48,0.86,-1.32,4.77
2022-12-06 15:33:25.0150,0.324,-1.145,-0.012,-8.44,3.68,1.82,0.89,-1.09,4.38
2022-12-06 15:33:25.0250,0.358,-1.113,-0.022,-9.23,3.43,1.93,0.94,-0.85,4.0
2022-12-06 15:33:25.0350,0.349,-1.091,-0.037,-9.68,3.46,2.24,1.0,-0.6,3.6
2022-12-06 15:33:25.0460,0.307,-1.051,-0.025,-9.71,3.41,2.37,1.03,-0.36,3.16
2022-12-06 15:33:25.0560,0.26,-1.017,-0.017,-9.42,3.23,2.33,1.05,-0.12,2.71
2022-12-06 15:33:25.0660,0.247,-0.991,-0.01,-9.25,3.14,2.34,1.05,0.1,2.25
2022-12-06 15:33:25.0750,0.255,-0.943,0.0,-9.35,2.99,2.33,1.04,0.29,1.84
2022-12-06 15:33:25.0850,0.295,-0.877,0.011,-9.65,2.58,2.24,1.05,0.43,1.5
2022-12-06 15:33:25.0960,0.339,-0.817,-0.008,-10.22,2.08,2.31,1.06,0.5,1.22
2022-12-06 15:33:25.1050,0.389,-0.759,0.022,-10.72,1.57,2.4,1.04,0.54,0.98
2022-12-06 15:33:25.1160,0.41,-0.737,0.055,-11.25,1.18,2.04,0.98,0.55,0.75
2022-12-06 15:33:25.1260,0.396,-0.769,0.085,-11.33,1.25,1.76,0.88,0.56,0.48
2022-12-06 15:33:25.1360,0.368,-0.811,0.087,-11.19,1.72,1.53,0.78,0.61,0.16
2022-12-06 15:33:25.1460,0.334,-0.816,0.063,-10.88,2.03,1.64,0.72,0.73,-0.2
2022-12-06 15:33:25.1560,0.308,-0.814,0.041,-10.57,1.98,1.87,0.69,0.94,-0.61
2022-12-06 15:33:25.1660,0.266,-0.844,0.028,-10.28,2.02,2.02,0.68,1.22,-1.07
2022-12-06 15:33:25.1760,0.2,-0.888,0.025,-9.71,2.34,2.05,0.67,1.54,-1.61
2022-12-06 15:33:25.1860,0.124,-0.911,0.028,-8.94,2.59,1.97,0.66,1.9,-2.21
2022-12-06 15:33:25.1960,0.057,-0.922,0.031,-8.09,2.59,1.82,0.65,2.25,-2.84
2022-12-06 15:33:25.2060,0.017,-0.929,0.037,-7.37,2.47,1.67,0.65,2.56,-3.45
2022-12-06 15:33:25.2160,0.016,-0.952,0.046,-6.91,2.34,1.45,0.64,2.83,-4.0
2022-12-06 15:33:25.2260,0.038,-1.005,0.058,-6.78,2.39,1.2,0.64,3.07,-4.49
2022-12-06 15:33:25.2360,0.057,-1.077,0.062,-6.73,2.72,0.94,0.64,3.26,-4.93
2022-12-06 15:33:25.2460,0.066,-1.154,0.064,-6.52,3.15,0.78,0.64,3.26,-4.93
2022-12-06 15:33:25.2560,0.088,-1.214,0.07,-6.25,3.57,0.59,0.66,3.47,-5.67
2022-12-06 15:33:25.2660,0.132,-1.25,0.073,-6.11,3.76,0.41,0.68,3.47,-5.94
2022-12-06 15:33:25.2760,0.197,-1.273,0.07,-6.15,3.76,0.27,0.73,3.43,-6.15
2022-12-06 15:33:25.2860,0.26,-1.298,0.055,-6.31,3.71,0.27,0.8,3.36,-6.3
2022-12-06 15:33:25.2960,0.294,-1.3,0.038,-6.31,3.7,0.38,0.91,3.26,-6.41
2022-12-06 15:33:25.3060,0.301,-1.261,0.028,-5.95,3.32,0.51,1.0,3.1,-6.48
2022-12-06 15:33:25.3160,0.298,-1.244,0.037,-5.38,2.8,0.56,1.06,2.88,-6.53
2022-12-06 15:33:25.3260,0.297,-1.216,0.051,-4.73,2.54,0.48,1.07,2.61,-6.52
2022-12-06 15:33:25.3360,0.321,-1.167,0.087,-4.21,2.06,0.37,0.99,2.3,-6.44
2022-12-06 15:33:25.3470,0.338,-1.129,0.095,-3.87,1.54,0.06,0.88,2.0,-6.31
2022-12-06 15:33:25.3570,0.319,-1.1,0.069,-3.3,1.21,0.26,0.77,1.75,-6.15
2022-12-06 15:33:25.3660,0.329,-1.096,0.04,-2.57,1.0,0.6,0.77,1.75,-6.15
2022-12-06 15:33:25.3770,0.351,-1.133,0.012,-2.24,1.18,0.96,0.59,1.47,-5.73
2022-12-06 15:33:25.3870,0.345,-1.171,-0.006,-1.83,1.71,1.3,0.5,1.39,-5.49
2022-12-06 15:33:25.3970,0.335,-1.172,-0.001,-1.22,2.04,1.45,0.41,1.32,-5.24
2022-12-06 15:33:25.4070,0.323,-1.168,-0.004,-0.68,2.12,1.46,0.32,1.25,-4.98
2022-12-06 15:33:25.4170,0.306,-1.179,-0.023,-0.08,2.26,1.61,0.25,1.19,-4.71
2022-12-06 15:33:25.4270,0.293,-1.21,-0.034,0.48,2.59,1.87,0.19,1.13,-4.45
2022-12-06 15:33:25.4370,0.271,-1.25,-0.035,0.99,3.14,1.97,0.12,1.08,-4.21
2022-12-06 15:33:25.4470,0.238,-1.265,-0.038,1.61,3.62,2.03,0.06,1.04,-3.99
2022-12-06 15:33:25.4570,0.22,-1.27,-0.041,2.22,3.87,2.11,0.01,1.03,-3.77
2022-12-06 15:33:25.4670,0.205,-1.278,-0.054,2.66,4.1,2.21,-0.01,1.06,-3.57
2022-12-06 15:33:25.4770,0.195,-1.285,-0.075,3.09,4.34,2.44,-0.01,1.06,-3.57
2022-12-06 15:33:25.4870,0.198,-1.301,-0.091,3.36,4.61,2.69,-0.01,1.2,-3.13
2022-12-06 15:33:25.4970,0.194,-1.31,-0.101,3.56,4.94,2.89,-0.02,1.24,-2.92
2022-12-06 15:33:25.5070,0.179,-1.303,-0.098,3.84,5.12,3.02,-0.09,1.24,-2.72
2022-12-06 15:33:25.5170,0.164,-1.294,-0.08,4.18,5.17,2.97,-0.2,1.21,-2.53
2022-12-06 15:33:25.5270,0.151,-1.297,-0.072,4.48,5.26,2.88,-0.34,1.17,-2.35
2022-12-06 15:33:25.5370,0.155,-1.321,-0.073,4.71,5.49,2.87,-0.48,1.15,-2.19
2022-12-06 15:33:25.5470,0.158,-1.363,-0.078,4.77,5.93,2.94,-0.61,1.12,-2.03
2022-12-06 15:33:25.5570,0.154,-1.413,-0.084,4.89,6.49,3.01,-0.71,1.1,-1.9
2022-12-06 15:33:25.5670,0.152,-1.47,-0.104,5.04,7.11,3.13,-0.77,1.08,-1.77
2022-12-06 15:33:25.5770,0.152,-1.519,-0.122,5.14,7.77,3.37,-0.8,1.06,-1.66
2022-12-06 15:33:25.5870,0.143,-1.54,-0.129,5.26,8.23,3.51,-0.81,1.02,-1.54
2022-12-06 15:33:25.5970,0.145,-1.552,-0.14,5.41,8.47,3.59,-0.8,0.97,-1.4
2022-12-06 15:33:25.6070,0.161,-1.564,-0.151,5.39,8.65,3.73,-0.78,0.91,-1.24
2022-12-06 15:33:25.6170,0.172,-1.58,-0.152,5.29,8.84,3.81,-0.77,0.8,-1.06
2022-12-06 15:33:25.6270,0.181,-1.612,-0.147,5.25,9.1,3.79,-0.76,0.64,-0.87
2022-12-06 15:33:25.6370,0.175,-1.643,-0.15,5.24,9.47,3.74,-0.74,0.42,-0.69
2022-12-06 15:33:25.6470,0.177,-1.688,-0.168,5.34,9.83,3.8,-0.67,0.18,-0.51
2022-12-06 15:33:25.6580,0.179,-1.725,-0.184,5.3,10.31,3.98,-0.58,-0.09,-0.36
2022-12-06 15:33:25.6680,0.149,-1.733,-0.194,5.42,10.56,4.0,-0.43,-0.36,-0.23
2022-12-06 15:33:25.6780,0.127,-1.73,-0.23,5.75,10.6,4.18,-0.23,-0.62,-0.1
2022-12-06 15:33:25.6880,0.112,-1.699,-0.244,5.94,10.5,4.42,-0.02,-0.88,0.06
2022-12-06 15:33:25.6980,0.094,-1.609,-0.238,6.11,9.99,4.4,0.16,-1.14,0.26
2022-12-06 15:33:25.7080,0.09,-1.482,-0.215,6.27,8.9,4.2,0.3,-1.39,0.54
2022-12-06 15:33:25.7180,0.126,-1.373,-0.183,6.15,7.62,3.84,0.4,-1.63,0.92
2022-12-06 15:33:25.7280,0.18,-1.307,-0.149,5.67,6.62,3.43,0.44,-1.86,1.38
2022-12-06 15:33:25.7380,0.247,-1.301,-0.111,5.02,6.08,2.96,0.47,-2.07,1.87
2022-12-06 15:33:25.7480,0.319,-1.338,-0.085,4.24,6.08,2.51,0.5,-2.24,2.37
2022-12-06 15:33:25.7580,0.368,-1.382,-0.056,3.41,6.34,2.14,0.54,-2.36,2.81
2022-12-06 15:33:25.7680,0.398,-1.423,-0.024,2.92,6.55,1.72,0.59,-2.43,3.2
2022-12-06 15:33:25.7780,0.433,-1.459,0.003,2.31,6.77,1.27,0.65,-2.46,3.51
2022-12-06 15:33:25.7880,0.448,-1.467,0.011,1.85,6.79,1.01,0.72,-2.44,3.76
2022-12-06 15:33:25.7980,0.466,-1.46,0.024,1.4,6.58,0.81,0.79,-2.36,3.96
2022-12-06 15:33:25.8080,0.471,-1.428,0.026,0.97,6.21,0.65,0.85,-2.27,4.12
2022-12-06 15:33:25.8180,0.472,-1.381,0.033,0.64,5.6,0.59,0.88,-2.16,4.26
2022-12-06 15:33:25.8280,0.486,-1.34,0.041,0.24,4.94,0.45,0.88,-2.06,4.38
2022-12-06 15:33:25.8380,0.505,-1.314,0.032,-0.28,4.37,0.42,0.86,-1.97,4.49
2022-12-06 15:33:25.8480,0.515,-1.294,0.036,-0.86,3.98,0.48,0.79,-1.92,4.58
2022-12-06 15:33:25.8580,0.497,-1.242,0.062,-1.24,3.51,0.34,0.66,-1.91,4.64
2022-12-06 15:33:25.8680,0.47,-1.184,0.077,-1.41,2.76,0.08,0.51,-1.93,4.68
2022-12-06 15:33:25.8780,0.467,-1.141,0.094,-1.62,2.12,-0.06,0.34,-1.96,4.73
2022-12-06 15:33:25.8880,0.461,-1.132,0.105,-2.1,1.65,-0.31,0.34,-1.96,4.73
2022-12-06 15:33:25.8980,0.455,-1.121,0.083,-2.41,1.53,-0.26,0.09,-1.91,4.82
2022-12-06 15:33:25.9080,0.47,-1.095,0.088,-2.91,1.24,-0.17,0.02,-1.8,4.89
2022-12-06 15:33:25.9180,0.493,-1.077,0.086,-3.55,0.93,-0.25,-0.03,-1.65,4.97
2022-12-06 15:33:25.9280,0.518,-1.076,0.079,-4.27,0.77,-0.22,-0.05,-1.49,5.05
2022-12-06 15:33:25.9380,0.521,-1.08,0.07,-4.96,0.79,-0.16,-0.06,-1.34,5.11
2022-12-06 15:33:25.9490,0.511,-1.066,0.064,-5.41,0.77,-0.07,-0.07,-1.22,5.14
2022-12-06 15:33:25.9580,0.499,-1.063,0.071,-5.78,0.64,-0.07,-0.09,-1.17,5.15
2022-12-06 15:33:25.9690,0.496,-1.088,0.051,-6.22,0.81,-0.05,-0.09,-1.11,5.13
2022-12-06 15:33:25.9780,0.481,-1.085,0.051,-6.62,1.07,0.12,-0.08,-1.07,5.09
2022-12-06 15:33:25.9890,0.462,-1.086,0.036,-6.95,1.1,0.12,-0.05,-1.03,5.01
2022-12-06 15:33:25.9990,0.44,-1.095,0.01,-7.21,1.28,0.39,0.0,-1.0,4.91
2022-12-06 15:33:26.0090,0.424,-1.103,-0.004,-7.43,1.51,0.61,0.06,-0.97,4.79
2022-12-06 15:33:26.0190,0.425,-1.114,-0.015,-7.79,1.76,0.79,0.11,-0.97,4.66
2022-12-06 15:33:26.0290,0.434,-1.134,-0.01,-8.22,2.07,0.9,0.14,-1.01,4.52
2022-12-06 15:33:26.0390,0.46,-1.167,-0.015,-8.76,2.51,0.89,0.18,-1.05,4.4
2022-12-06 15:33:26.0490,0.477,-1.194,-0.027,-9.39,3.05,1.08,0.22,-1.11,4.27
2022-12-06 15:33:26.0590,0.47,-1.188,-0.021,-9.81,3.42,1.21,0.25,-1.17,4.14
2022-12-06 15:33:26.0690,0.445,-1.16,-0.019,-10.0,3.46,1.21,0.29,-1.23,3.97
2022-12-06 15:33:26.0790,0.419,-1.139,-0.035,-10.01,3.43,1.36,0.33,-1.26,3.78
2022-12-06 15:33:26.0890,0.395,-1.104,-0.041,-10.06,3.43,1.61,0.38,-1.28,3.57
2022-12-06 15:33:26.0990,0.358,-1.049,-0.045,-10.03,3.21,1.75,0.43,-1.26,3.33
2022-12-06 15:33:26.1090,0.322,-1.0,-0.05,-9.87,2.88,1.91,0.46,-1.22,3.05
2022-12-06 15:33:26.1190,0.297,-0.955,-0.043,-9.74,2.64,2.05,0.47,-1.14,2.78
2022-12-06 15:33:26.1290,0.277,-0.894,-0.003,-9.71,2.36,1.97,0.42,-1.07,2.49
2022-12-06 15:33:26.1390,0.244,-0.822,0.041,-9.59,1.82,1.62,0.32,-1.01,2.19
2022-12-06 15:33:26.1490,0.243,-0.818,0.082,-9.47,1.47,1.3,0.18,-0.92,1.88
2022-12-06 15:33:26.1590,0.235,-0.835,0.099,-9.61,1.73,1.01,0.05,-0.77,1.56
2022-12-06 15:33:26.1690,0.214,-0.853,0.07,-9.52,1.98,1.07,-0.03,-0.52,1.19
2022-12-06 15:33:26.1790,0.183,-0.875,0.034,-9.35,2.25,1.45,-0.07,-0.19,0.77
2022-12-06 15:33:26.1890,0.137,-0.895,-0.0,-9.03,2.51,1.8,-0.06,0.21,0.28
2022-12-06 15:33:26.1990,0.077,-0.894,-0.029,-8.53,2.67,2.09,-0.01,0.65,-0.28
2022-12-06 15:33:26.2090,0.003,-0.851,-0.035,-7.88,2.46,2.24,0.03,1.09,-0.91
2022-12-06 15:33:26.2190,-0.068,-0.803,-0.031,-7.08,1.89,2.15,0.09,1.5,-1.6
2022-12-06 15:33:26.2290,-0.111,-0.761,-0.015,-6.36,1.31,1.97,0.13,1.86,-2.27
2022-12-06 15:33:26.2390,-0.095,-0.747,0.003,-6.01,0.78,1.64,0.18,2.16,-2.89
2022-12-06 15:33:26.2490,-0.051,-0.778,0.017,-6.16,0.6,1.36,0.23,2.41,-3.42
2022-12-06 15:33:26.2590,-0.025,-0.835,0.039,-6.35,0.77,1.03,0.27,2.63,-3.91
2022-12-06 15:33:26.2700,-0.027,-0.916,0.063,-6.22,1.17,0.64,0.29,2.82,-4.38
2022-12-06 15:33:26.2800,-0.041,-0.997,0.078,-5.83,1.69,0.26,0.32,3.01,-4.82
2022-12-06 15:33:26.2900,-0.038,-1.064,0.069,-5.37,2.16,0.03,0.37,3.21,-5.24
2022-12-06 15:33:26.3000,-0.008,-1.104,0.052,-5.08,2.43,0.04,0.47,3.41,-5.6
2022-12-06 15:33:26.3100,0.041,-1.12,0.048,-5.01,2.43,0.03,0.58,3.58,-5.91
2022-12-06 15:33:26.3200,0.088,-1.138,0.055,-4.98,2.28,-0.11,0.7,3.69,-6.16
2022-12-06 15:33:26.3300,0.151,-1.158,0.058,-4.95,2.24,-0.24,0.82,3.75,-6.35
2022-12-06 15:33:26.3400,0.212,-1.148,0.066,-5.02,2.11,-0.37,0.82,3.75,-6.35
2022-12-06 15:33:26.3500,0.254,-1.119,0.061,-4.95,1.72,-0.42,1.05,3.69,-6.52
2022-12-06 15:33:26.3600,0.286,-1.114,0.053,-4.7,1.34,-0.32,1.15,3.58,-6.54
2022-12-06 15:33:26.3700,0.312,-1.114,0.05,-4.37,1.25,-0.23,1.22,3.42,-6.5
2022-12-06 15:33:26.3800,0.336,-1.094,0.04,-4.0,1.09,-0.09,1.27,3.22,-6.42
2022-12-06 15:33:26.3900,0.353,-1.091,0.027,-3.6,0.89,0.14,1.28,2.99,-6.3
2022-12-06 15:33:26.4000,0.37,-1.096,0.014,-3.14,0.94,0.38,1.25,2.73,-6.13
2022-12-06 15:33:26.4100,0.381,-1.097,0.013,-2.74,1.02,0.64,1.16,2.42,-5.94
2022-12-06 15:33:26.4200,0.383,-1.084,0.021,-2.24,1.07,0.7,1.02,2.08,-5.74
2022-12-06 15:33:26.4300,0.36,-1.079,0.013,-1.69,1.04,0.83,0.87,1.76,-5.55
2022-12-06 15:33:26.4400,0.316,-1.079,0.016,-0.83,1.2,1.0,0.7,1.47,-5.37
2022-12-06 15:33:26.4500,0.301,-1.066,0.025,0.01,1.26,1.02,0.7,1.47,-5.37
2022-12-06 15:33:26.4600,0.309,-1.091,0.033,0.51,1.41,1.02,0.34,1.07,-4.97
2022-12-06 15:33:26.4700,0.326,-1.123,0.03,0.81,1.93,1.03,0.21,0.97,-4.73
2022-12-06 15:33:26.4800,0.335,-1.15,0.019,1.04,2.42,1.16,0.1,0.9,-4.5
2022-12-06 15:33:26.4900,0.333,-1.167,0.016,1.37,2.85,1.3,0.01,0.88,-4.27
2022-12-06 15:33:26.5000,0.332,-1.188,0.017,1.74,3.2,1.32,0.01,0.88,-4.27
2022-12-06 15:33:26.5100,0.325,-1.224,0.008,2.08,3.67,1.4,-0.05,1.0,-3.87
2022-12-06 15:33:26.5200,0.33,-1.285,-0.011,2.41,4.3,1.57,-0.02,1.13,-3.71
2022-12-06 15:33:26.5300,0.334,-1.361,-0.036,2.61,5.2,1.86,0.03,1.25,-3.58
2022-12-06 15:33:26.5400,0.338,-1.417,-0.055,2.84,6.14,2.17,0.09,1.33,-3.45
2022-12-06 15:33:26.5510,0.353,-1.447,-0.067,2.98,6.77,2.42,0.13,1.35,-3.31
2022-12-06 15:33:26.5600,0.383,-1.479,-0.076,3.01,7.25,2.63,0.15,1.3,-3.13
2022-12-06 15:33:26.5700,0.417,-1.524,-0.086,2.85,7.84,2.8,0.14,1.2,-2.92
2022-12-06 15:33:26.5810,0.441,-1.547,-0.1,2.72,8.43,3.0,0.12,1.06,-2.68
2022-12-06 15:33:26.5910,0.455,-1.547,-0.105,2.65,8.75,3.2,0.06,0.91,-2.41
2022-12-06 15:33:26.6010,0.443,-1.514,-0.103,2.73,8.81,3.28,-0.01,0.76,-2.14
2022-12-06 15:33:26.6110,0.408,-1.469,-0.097,3.07,8.53,3.3,-0.09,0.63,-1.87
2022-12-06 15:33:26.6210,0.373,-1.446,-0.098,3.52,8.3,3.27,-0.18,0.53,-1.62
2022-12-06 15:33:26.6310,0.335,-1.414,-0.095,3.95,8.18,3.33,-0.18,0.53,-1.62
2022-12-06 15:33:26.6410,0.313,-1.387,-0.073,4.36,7.94,3.24,-0.4,0.42,-1.18
2022-12-06 15:33:26.6510,0.305,-1.382,-0.046,4.57,7.81,3.01,-0.56,0.38,-0.97
2022-12-06 15:33:26.6610,0.325,-1.419,-0.011,4.61,7.97,2.7,-0.74,0.35,-0.74
2022-12-06 15:33:26.6710,0.355,-1.47,0.016,4.34,8.46,2.34,-0.92,0.33,-0.51
2022-12-06 15:33:26.6810,0.346,-1.496,0.027,4.19,8.91,2.11,-1.07,0.3,-0.32
2022-12-06 15:33:26.6910,0.326,-1.503,0.022,4.37,9.06,2.02,-1.16,0.27,-0.16
2022-12-06 15:33:26.7010,0.309,-1.522,0.014,4.57,9.13,2.05,-1.22,0.22,-0.04
2022-12-06 15:33:26.7110,0.299,-1.549,-0.001,4.69,9.35,2.07,-1.21,0.14,0.05
2022-12-06 15:33:26.7210,0.272,-1.544,-0.029,4.81,9.5,2.23,-1.14,0.02,0.11
2022-12-06 15:33:26.7310,0.22,-1.499,-0.051,5.18,9.27,2.41,-1.03,-0.1,0.15
2022-12-06 15:33:26.7410,0.172,-1.414,-0.07,5.71,8.64,2.56,-1.03,-0.1,0.15
2022-12-06 15:33:26.7510,0.166,-1.305,-0.075,6.05,7.65,2.64,-0.72,-0.27,0.32
2022-12-06 15:33:26.7610,0.197,-1.217,-0.071,5.93,6.58,2.57,-0.72,-0.27,0.32
2022-12-06 15:33:26.7710,0.254,-1.164,-0.063,5.49,5.77,2.47,-0.48,-0.43,0.86
2022-12-06 15:33:26.7810,0.321,-1.155,-0.05,4.83,5.32,2.29,-0.41,-0.58,1.27
2022-12-06 15:33:26.7910,0.379,-1.181,-0.043,4.08,5.27,2.11,-0.36,-0.78,1.73
2022-12-06 15:33:26.8010,0.438,-1.23,-0.034,3.47,5.45,1.98,-0.32,-1.02,2.21
2022-12-06 15:33:26.8110,0.487,-1.289,-0.018,2.71,5.84,1.71,-0.26,-1.24,2.66
2022-12-06 15:33:26.8220,0.488,-1.319,-0.01,2.24,6.13,1.52,-0.19,-1.44,3.05
2022-12-06 15:33:26.8320,0.503,-1.345,0.008,2.09,6.12,1.28,-0.1,-1.6,3.4
2022-12-06 15:33:26.8410,0.524,-1.359,0.016,1.6,6.17,0.99,0.01,-1.71,3.7
2022-12-06 15:33:26.8510,0.544,-1.35,0.021,1.2,5.91,0.86,0.01,-1.71,3.7
2022-12-06 15:33:26.8620,0.561,-1.343,0.038,0.67,5.61,0.63,0.24,-1.83,4.23
2022-12-06 15:33:26.8720,0.572,-1.332,0.046,0.24,5.24,0.42,0.32,-1.89,4.44
2022-12-06 15:33:26.8820,0.575,-1.322,0.073,-0.21,4.89,0.19,0.36,-1.98,4.63
2022-12-06 15:33:26.8920,0.56,-1.309,0.089,-0.54,4.54,-0.14,0.36,-2.11,4.79
2022-12-06 15:33:26.9020,0.549,-1.294,0.096,-0.78,4.17,-0.32,0.32,-2.3,4.92
2022-12-06 15:33:26.9110,0.546,-1.269,0.106,-1.15,3.79,-0.48,0.25,-2.56,5.04
2022-12-06 15:33:26.9220,0.544,-1.236,0.113,-1.54,3.28,-0.66,0.18,-2.85,5.16
2022-12-06 15:33:26.9320,0.581,-1.228,0.112,-2.08,2.84,-0.78,0.12,-3.12,5.31
2022-12-06 15:33:26.9420,0.649,-1.235,0.121,-3.12,2.68,-0.93,0.12,-3.35,5.51
2022-12-06 15:33:26.9520,0.673,-1.238,0.069,-4.24,2.61,-0.84,0.19,-3.46,5.7
2022-12-06 15:33:26.9620,0.669,-1.211,0.087,-4.8,2.42,-0.62,0.27,-3.52,5.89
2022-12-06 15:33:26.9720,0.668,-1.201,0.068,-5.4,2.06,-0.73,0.37,-3.47,6.06
2022-12-06 15:33:26.9820,0.661,-1.197,0.071,-5.94,1.98,-0.54,0.47,-3.35,6.21
2022-12-06 15:33:26.9920,0.645,-1.192,0.084,-6.47,1.91,-0.63,0.56,-3.18,6.33
2022-12-06 15:33:27.0020,0.63,-1.184,0.081,-6.9,1.9,-0.62,0.64,-2.94,6.42
2022-12-06 15:33:27.0120,0.611,-1.137,0.102,-7.4,1.75,-0.55,0.69,-2.66,6.47
2022-12-06 15:33:27.0220,0.572,-1.088,0.117,-7.76,1.32,-0.69,0.72,-2.36,6.47
2022-12-06 15:33:27.0320,0.513,-1.079,0.102,-7.91,1.12,-0.61,0.75,-2.05,6.4
2022-12-06 15:33:27.0420,0.458,-1.093,0.077,-7.89,1.32,-0.26,0.78,-1.76,6.25
2022-12-06 15:33:27.0520,0.426,-1.129,0.063,-8.0,1.75,0.07,0.8,-1.5,6.05
2022-12-06 15:33:27.0620,0.395,-1.163,0.044,-8.24,2.38,0.34,0.83,-1.29,5.78
2022-12-06 15:33:27.0720,0.348,-1.164,0.011,-8.36,2.87,0.69,0.89,-1.1,5.45
2022-12-06 15:33:27.0820,0.299,-1.152,-0.038,-8.3,3.07,1.22,0.98,-0.89,5.05
2022-12-06 15:33:27.0920,0.279,-1.122,-0.056,-8.29,3.17,1.77,0.98,-0.68,4.62
2022-12-06 15:33:27.1020,0.276,-1.091,-0.064,-8.55,3.1,1.96,1.2,-0.45,4.16
2022-12-06 15:33:27.1120,0.262,-1.054,-0.069,-8.79,3.07,2.18,1.29,-0.23,3.68
2022-12-06 15:33:27.1230,0.24,-1.018,-0.059,-8.87,2.9,2.26,1.37,-0.04,3.17
2022-12-06 15:33:27.1330,0.224,-0.99,-0.069,-8.88,2.82,2.32,1.44,0.14,2.66
2022-12-06 15:33:27.1430,0.225,-0.948,-0.079,-8.95,2.71,2.54,1.52,0.3,2.17
2022-12-06 15:33:27.1530,0.245,-0.867,-0.075,-9.17,2.33,2.67,1.58,0.43,1.72
2022-12-06 15:33:27.1630,0.261,-0.789,-0.069,-9.5,1.62,2.68,1.61,0.51,1.32
2022-12-06 15:33:27.1730,0.26,-0.733,-0.057,-9.68,1.06,2.67,1.63,0.55,0.93
2022-12-06 15:33:27.1830,0.267,-0.689,-0.04,-9.73,0.65,2.62,1.6,0.55,0.58
2022-12-06 15:33:27.1930,0.278,-0.671,0.007,-9.87,0.35,2.4,1.49,0.53,0.25
2022-12-06 15:33:27.2030,0.297,-0.681,0.059,-10.02,0.35,1.94,1.33,0.5,-0.04
2022-12-06 15:33:27.2120,0.314,-0.689,0.088,-10.25,0.47,1.52,1.16,0.51,-0.32
2022-12-06 15:33:27.2230,0.3,-0.696,0.075,-10.25,0.54,1.44,1.01,0.59,-0.6
2022-12-06 15:33:27.2330,0.305,-0.721,0.082,-10.14,0.61,1.56,0.86,0.75,-0.88
2022-12-06 15:33:27.2430,0.283,-0.764,0.083,-10.12,0.89,1.44,0.73,0.99,-1.2
2022-12-06 15:33:27.2530,0.226,-0.819,0.076,-9.66,1.26,1.46,0.61,1.28,-1.57
2022-12-06 15:33:27.2630,0.181,-0.884,0.068,-9.05,1.77,1.46,0.53,1.6,-2.0
2022-12-06 15:33:27.2730,0.127,-0.923,0.046,-8.5,2.18,1.51,0.47,1.94,-2.48
2022-12-06 15:33:27.2830,0.068,-0.958,0.039,-7.77,2.34,1.59,0.42,2.26,-3.01
2022-12-06 15:33:27.2930,0.034,-0.995,0.039,-7.08,2.5,1.47,0.38,2.54,-3.54
2022-12-06 15:33:27.3030,0.047,-1.023,0.035,-6.69,2.59,1.34,0.37,2.78,-4.03
2022-12-06 15:33:27.3130,0.081,-1.05,0.035,-6.69,2.6,1.22,0.38,2.95,-4.46
2022-12-06 15:33:27.3230,0.105,-1.076,0.035,-6.68,2.59,1.06,0.38,2.95,-4.46
2022-12-06 15:33:27.3330,0.13,-1.108,0.02,-6.54,2.59,0.97,0.45,3.09,-5.19
2022-12-06 15:33:27.3430,0.17,-1.137,0.016,-6.43,2.64,0.98,0.51,3.08,-5.48
2022-12-06 15:33:27.3530,0.21,-1.157,0.021,-6.42,2.61,0.87,0.51,3.08,-5.48
2022-12-06 15:33:27.3630,0.232,-1.182,0.033,-6.27,2.58,0.72,0.59,3.0,-5.93
2022-12-06 15:33:27.3730,0.255,-1.179,0.068,-5.95,2.54,0.49,0.57,2.93,-6.09
2022-12-06 15:33:27.3830,0.278,-1.141,0.109,-5.65,2.16,0.01,0.51,2.85,-6.22
2022-12-06 15:33:27.3930,0.285,-1.099,0.124,-5.27,1.57,-0.34,0.46,2.79,-6.31
2022-12-06 15:33:27.4030,0.295,-1.078,0.116,-4.73,1.08,-0.41,0.42,2.76,-6.36
2022-12-06 15:33:27.4130,0.308,-1.069,0.105,-4.26,0.84,-0.3,0.4,2.79,-6.39
2022-12-06 15:33:27.4240,0.328,-1.062,0.099,-3.79,0.7,-0.21,0.4,2.84,-6.38
2022-12-06 15:33:27.4340,0.369,-1.066,0.091,-3.45,0.64,-0.11,0.4,2.92,-6.31
2022-12-06 15:33:27.4430,0.432,-1.085,0.085,-3.36,0.75,0.01,0.41,2.98,-6.18
2022-12-06 15:33:27.4540,0.507,-1.127,0.067,-3.46,1.05,0.14,0.42,3.02,-5.98
2022-12-06 15:33:27.4640,0.56,-1.188,0.04,-3.63,1.64,0.47,0.42,2.99,-5.74
2022-12-06 15:33:27.4740,0.563,-1.233,0.018,-3.46,2.33,0.8,0.41,2.89,-5.51
2022-12-06 15:33:27.4840,0.539,-1.243,0.002,-2.86,2.79,1.12,0.37,2.72,-5.27
2022-12-06 15:33:27.4940,0.53,-1.244,0.009,-2.19,2.93,1.29,0.28,2.51,-5.03
2022-12-06 15:33:27.5040,0.537,-1.281,0.016,-1.76,3.22,1.3,0.17,2.27,-4.77
2022-12-06 15:33:27.5140,0.551,-1.34,0.019,-1.49,3.87,1.33,0.07,2.05,-4.52
2022-12-06 15:33:27.5240,0.535,-1.393,0.006,-1.19,4.65,1.43,0.0,1.88,-4.3
2022-12-06 15:33:27.5340,0.49,-1.402,-0.016,-0.56,5.22,1.7,-0.01,1.79,-4.12
2022-12-06 15:33:27.5440,0.445,-1.408,-0.026,0.21,5.4,1.97,0.02,1.75,-3.99
2022-12-06 15:33:27.5540,0.391,-1.431,-0.039,0.97,5.75,2.14,0.08,1.74,-3.9
2022-12-06 15:33:27.5640,0.342,-1.454,-0.063,1.79,6.18,2.41,0.16,1.73,-3.84
2022-12-06 15:33:27.5740,0.312,-1.474,-0.081,2.47,6.64,2.76,0.25,1.7,-3.78
2022-12-06 15:33:27.5840,0.297,-1.471,-0.088,2.95,6.98,3.0,0.31,1.64,-3.71
2022-12-06 15:33:27.5940,0.3,-1.47,-0.1,3.28,7.15,3.21,0.35,1.53,-3.59
2022-12-06 15:33:27.6040,0.327,-1.472,-0.102,3.38,7.4,3.43,0.33,1.38,-3.43
2022-12-06 15:33:27.6140,0.357,-1.457,-0.087,3.27,7.6,3.49,0.24,1.21,-3.21
2022-12-06 15:33:27.6240,0.383,-1.437,-0.058,3.18,7.61,3.37,0.08,1.03,-2.94
2022-12-06 15:33:27.6340,0.411,-1.445,-0.034,3.08,7.69,3.14,-0.11,0.87,-2.64
2022-12-06 15:33:27.6440,0.425,-1.457,-0.026,2.95,8.01,3.01,-0.31,0.78,-2.32
2022-12-06 15:33:27.6540,0.408,-1.466,-0.025,3.06,8.24,3.01,-0.48,0.75,-2.02
2022-12-06 15:33:27.6640,0.384,-1.47,-0.021,3.37,8.45,3.02,-0.63,0.79,-1.75
2022-12-06 15:33:27.6740,0.366,-1.484,-0.025,3.67,8.61,3.0,-0.73,0.88,-1.51
2022-12-06 15:33:27.6840,0.34,-1.486,-0.033,3.91,8.82,3.1,-0.81,0.97,-1.31
2022-12-06 15:33:27.6940,0.328,-1.496,-0.041,4.19,8.9,3.21,-0.88,1.03,-1.14
2022-12-06 15:33:27.7050,0.341,-1.529,-0.046,4.25,9.14,3.31,-0.94,1.03,-0.98
2022-12-06 15:33:27.7150,0.344,-1.56,-0.055,4.12,9.53,3.36,-0.99,0.96,-0.84
2022-12-06 15:33:27.7240,0.318,-1.567,-0.077,4.23,9.79,3.53,-1.02,0.82,-0.73
2022-12-06 15:33:27.7350,0.275,-1.553,-0.088,4.57,9.79,3.72,-1.02,0.82,-0.73
2022-12-06 15:33:27.7450,0.232,-1.544,-0.099,5.05,9.66,3.78,-1.01,0.41,-0.62
2022-12-06 15:33:27.7550,0.206,-1.543,-0.127,5.42,9.64,3.93,-0.94,0.18,-0.58
2022-12-06 15:33:27.7650,0.185,-1.528,-0.143,5.68,9.61,4.14,-0.84,-0.05,-0.51
2022-12-06 15:33:27.7740,0.172,-1.492,-0.151,5.9,9.41,4.21,-0.72,-0.26,-0.4
2022-12-06 15:33:27.7850,0.181,-1.445,-0.153,5.99,9.0,4.2,-0.6,-0.46,-0.22
2022-12-06 15:33:27.7950,0.198,-1.371,-0.137,5.85,8.46,4.1,-0.51,-0.66,0.02
2022-12-06 15:33:27.8050,0.205,-1.287,-0.099,5.75,7.62,3.76,-0.47,-0.85,0.33
2022-12-06 15:33:27.8150,0.229,-1.237,-0.064,5.64,6.84,3.28,-0.46,-1.05,0.71
2022-12-06 15:33:27.8250,0.267,-1.222,-0.035,5.31,6.42,2.85,-0.48,-1.26,1.13
2022-12-06 15:33:27.8350,0.3,-1.228,-0.009,4.89,6.26,2.44,-0.52,-1.45,1.59
2022-12-06 15:33:27.8450,0.338,-1.248,0.02,4.51,6.23,2.06,-0.54,-1.6,2.06
2022-12-06 15:33:27.8550,0.373,-1.265,0.061,3.99,6.26,1.56,-0.56,-1.68,2.53
2022-12-06 15:33:27.8650,0.389,-1.267,0.097,3.61,6.16,1.0,-0.55,-1.68,2.98
2022-12-06 15:33:27.8750,0.412,-1.273,0.119,3.27,5.93,0.53,-0.52,-1.63,3.4
2022-12-06 15:33:27.8850,0.433,-1.272,0.135,2.82,5.74,0.21,-0.47,-1.56,3.8
2022-12-06 15:33:27.8950,0.447,-1.255,0.151,2.4,5.37,-0.09,-0.47,-1.56,3.8
2022-12-06 15:33:27.9050,0.463,-1.248,0.162,1.98,4.92,-0.37,-0.41,-1.47,4.5
2022-12-06 15:33:27.9150,0.489,-1.264,0.166,1.45,4.64,-0.56,-0.4,-1.47,4.82
2022-12-06 15:33:27.9250,0.523,-1.29,0.164,0.76,4.59,-0.7,-0.39,-1.51,5.1
2022-12-06 15:33:27.9350,0.535,-1.277,0.167,0.11,4.42,-0.79,-0.4,-1.58,5.34
2022-12-06 15:33:27.9450,0.53,-1.256,0.176,-0.39,3.95,-0.98,-0.42,-1.67,5.53
2022-12-06 15:33:27.9550,0.525,-1.242,0.169,-0.79,3.49,-1.15,-0.4312310218811035,-1.78,5.68
2022-12-06 15:33:27.9650,0.52,-1.232,0.165,-1.25,3.15,-1.17,-0.44,-1.9,5.79
2022-12-06 15:33:27.9750,0.52,-1.224,0.163,-1.72,2.83,-1.27,-0.46,-2.02,5.89
2022-12-06 15:33:27.9850,0.535,-1.233,0.154,-2.34,2.63,-1.34,-0.46,-2.15,5.97
2022-12-06 15:33:27.9950,0.538,-1.232,0.146,-3.03,2.57,-1.32,-0.46,-2.27,6.04
2022-12-06 15:33:28.0060,0.54,-1.219,0.151,-3.6,2.36,-1.4,-0.46,-2.36,6.1
2022-12-06 15:33:28.0160,0.576,-1.225,0.156,-4.3,2.18,-1.54,-0.46,-2.36,6.1
2022-12-06 15:33:28.0250,0.609,-1.246,0.12,-5.38,2.31,-1.53,-0.4,-2.47,6.25
2022-12-06 15:33:28.0360,0.583,-1.225,0.086,-6.09,2.38,-1.17,-0.3,-2.5,6.3
2022-12-06 15:33:28.0460,0.537,-1.193,0.059,-6.35,2.11,-0.89,-0.17,-2.5,6.29
2022-12-06 15:33:28.0560,0.481,-1.168,0.041,-6.46,1.89,-0.62,-0.03,-2.49,6.24
2022-12-06 15:33:28.0660,0.437,-1.147,0.049,-6.53,1.77,-0.5,0.09,-2.48,6.15
2022-12-06 15:33:28.0760,0.427,-1.143,0.047,-6.8,1.72,-0.52,0.23,-2.46,6.05
2022-12-06 15:33:28.0860,0.451,-1.195,0.01,-7.4,2.06,-0.28,0.41,-2.4,5.95
2022-12-06 15:33:28.0960,0.478,-1.248,-0.026,-8.23,2.85,0.27,0.6,-2.32,5.83
2022-12-06 15:33:28.1060,0.512,-1.278,-0.059,-9.01,3.53,0.71,0.84,-2.19,5.72
2022-12-06 15:33:28.1160,0.518,-1.246,-0.078,-9.82,3.91,1.23,1.05,-2.05,5.57
2022-12-06 15:33:28.1260,0.455,-1.154,-0.045,-10.06,3.59,1.41,1.22,-1.89,5.36
2022-12-06 15:33:28.1360,0.366,-1.069,-0.012,-9.71,2.93,1.23,1.34,-1.72,5.08
2022-12-06 15:33:28.1460,0.271,-1.023,0.013,-9.19,2.56,1.15,1.41,-1.54,4.72
2022-12-06 15:33:28.1560,0.195,-0.999,0.013,-8.61,2.46,1.17,1.46,-1.37,4.3
2022-12-06 15:33:28.1660,0.169,-1.022,-0.004,-8.3,2.71,1.45,1.5,-1.19,3.84
2022-12-06 15:33:28.1760,0.174,-1.028,-0.009,-8.46,3.2,1.79,1.52,-1.02,3.39
2022-12-06 15:33:28.1860,0.188,-1.033,-0.021,-8.74,3.45,1.95,1.56,-0.84,2.92
2022-12-06 15:33:28.1960,0.2,-0.995,-0.056,-9.06,3.72,2.39,1.61,-0.62,2.44
2022-12-06 15:33:28.2060,0.192,-0.843,-0.029,-9.26,3.09,2.71,1.6,-0.38,1.94
2022-12-06 15:33:28.2160,0.161,-0.705,0.037,-9.17,1.62,2.32,1.51,-0.11,1.4
2022-12-06 15:33:28.2260,0.149,-0.688,0.078,-8.94,0.78,1.83,1.37,0.19,0.87
2022-12-06 15:33:28.2360,0.187,-0.754,0.1,-9.06,1.11,1.56,1.2,0.51,0.38
2022-12-06 15:33:28.2460,0.248,-0.803,0.113,-9.58,1.83,1.4,1.03,0.81,-0.06
2022-12-06 15:33:28.2560,0.295,-0.827,0.115,-10.18,2.18,1.3,0.86,1.09,-0.46
2022-12-06 15:33:28.2670,0.301,-0.87,0.112,-10.52,2.42,1.26,0.7,1.34,-0.87
2022-12-06 15:33:28.2760,0.262,-0.944,0.084,-10.36,2.92,1.29,0.58,1.57,-1.32
2022-12-06 15:33:28.2860,0.205,-0.987,0.056,-9.83,3.5,1.52,0.51,1.79,-1.84
2022-12-06 15:33:28.2960,0.137,-0.986,0.038,-9.14,3.61,1.65,0.46,1.97,-2.42
2022-12-06 15:33:28.3070,0.078,-0.937,0.04,-8.34,3.23,1.64,0.42,2.14,-3.01
2022-12-06 15:33:28.3170,0.057,-0.888,0.059,-7.74,2.45,1.42,0.38,2.3,-3.58
2022-12-06 15:33:28.3270,0.034,-0.9,0.089,-7.36,1.88,1.03,0.33,2.48,-4.12
2022-12-06 15:33:28.3370,0.017,-0.97,0.12,-6.87,1.95,0.59,0.27,2.67,-4.62
2022-12-06 15:33:28.3470,0.019,-1.063,0.161,-6.46,2.48,0.09,0.18,2.86,-5.06
2022-12-06 15:33:28.3570,0.043,-1.136,0.209,-6.21,3.02,-0.52,0.09,3.02,-5.45
2022-12-06 15:33:28.3670,0.08,-1.219,0.219,-6.1,3.38,-1.09,0.02,3.15,-5.77
2022-12-06 15:33:28.3770,0.127,-1.322,0.189,-6.06,4.02,-1.15,0.01,3.25,-6.04
2022-12-06 15:33:28.3870,0.183,-1.372,0.171,-6.05,4.6,-1.02,0.04,3.31,-6.23
2022-12-06 15:33:28.3970,0.227,-1.36,0.177,-6.06,4.56,-1.09,0.1,3.34,-6.36
2022-12-06 15:33:28.4070,0.261,-1.321,0.169,-5.87,4.06,-1.25,0.18,3.34,-6.44
2022-12-06 15:33:28.4170,0.293,-1.283,0.149,-5.61,3.44,-1.21,0.3,3.31,-6.46
2022-12-06 15:33:28.4270,0.328,-1.254,0.134,-5.32,2.95,-1.06,0.44,3.26,-6.42
2022-12-06 15:33:28.4370,0.366,-1.214,0.127,-5.1,2.5,-0.96,0.57,3.18,-6.34
2022-12-06 15:33:28.4470,0.374,-1.175,0.127,-4.78,2.02,-0.89,0.66,3.04,-6.24
2022-12-06 15:33:28.4570,0.354,-1.137,0.141,-4.14,1.59,-0.91,0.71,2.85,-6.13
2022-12-06 15:33:28.4670,0.347,-1.105,0.147,-3.33,1.23,-0.99,0.71,2.85,-6.13
2022-12-06 15:33:28.4770,0.376,-1.081,0.152,-2.86,0.94,-0.94,0.73,2.45,-5.81
2022-12-06 15:33:28.4870,0.398,-1.087,0.145,-2.61,0.88,-0.88,0.73,2.29,-5.61
2022-12-06 15:33:28.4970,0.408,-1.083,0.134,-2.25,1.04,-0.66,0.72,2.16,-5.38
2022-12-06 15:33:28.5070,0.405,-1.073,0.128,-1.8,1.04,-0.48,0.71,2.07,-5.14
2022-12-06 15:33:28.5170,0.404,-1.087,0.109,-1.3,1.16,-0.26,0.71,2.03,-4.87
2022-12-06 15:33:28.5270,0.407,-1.108,0.091,-0.9,1.48,0.07,0.72,1.99,-4.61
2022-12-06 15:33:28.5370,0.399,-1.132,0.083,-0.5,1.86,0.34,0.73,1.95,-4.36
2022-12-06 15:33:28.5470,0.368,-1.155,0.061,0.0,2.27,0.59,0.75,1.9,-4.14
2022-12-06 15:33:28.5570,0.327,-1.157,0.048,0.73,2.61,0.95,0.75,1.83,-3.93
2022-12-06 15:33:28.5670,0.306,-1.154,0.044,1.37,2.74,1.16,0.75,1.76,-3.73
2022-12-06 15:33:28.5770,0.307,-1.17,0.031,1.78,2.97,1.36,0.76,1.7,-3.53
2022-12-06 15:33:28.5870,0.309,-1.19,0.014,1.99,3.35,1.67,0.78,1.64,-3.32
2022-12-06 15:33:28.5970,0.306,-1.204,0.005,2.24,3.7,1.97,0.78,1.57,-3.11
2022-12-06 15:33:28.6070,0.31,-1.227,-0.006,2.45,4.04,2.18,0.79,1.51,-2.9
2022-12-06 15:33:28.6180,0.315,-1.255,-0.019,2.59,4.48,2.45,0.78,1.45,-2.69
2022-12-06 15:33:28.6280,0.315,-1.281,-0.021,2.7,4.9,2.7,0.76,1.38,-2.49
2022-12-06 15:33:28.6380,0.306,-1.313,-0.018,2.9,5.33,2.8,0.72,1.32,-2.31
2022-12-06 15:33:28.6470,0.303,-1.363,-0.017,3.11,5.85,2.93,0.65,1.26,-2.12
2022-12-06 15:33:28.6580,0.316,-1.424,-0.017,3.18,6.55,3.02,0.58,1.19,-1.92
2022-12-06 15:33:28.6680,0.323,-1.475,-0.035,3.14,7.27,3.19,0.52,1.14,-1.74
2022-12-06 15:33:28.6780,0.304,-1.504,-0.055,3.24,7.82,3.51,0.47,1.1,-1.59
2022-12-06 15:33:28.6880,0.266,-1.511,-0.072,3.59,8.11,3.79,0.42,1.07,-1.47
2022-12-06 15:33:28.6980,0.236,-1.517,-0.084,4.02,8.29,4.04,0.36,1.05,-1.39
2022-12-06 15:33:28.7080,0.202,-1.492,-0.092,4.35,8.37,4.23,0.29,1.01,-1.33
2022-12-06 15:33:28.7180,0.162,-1.443,-0.099,4.78,8.1,4.38,0.2,0.96,-1.3
2022-12-06 15:33:28.7280,0.138,-1.4,-0.095,5.19,7.69,4.5,0.06,0.87,-1.26
2022-12-06 15:33:28.7380,0.14,-1.389,-0.076,5.38,7.45,4.45,-0.12,0.76,-1.19
2022-12-06 15:33:28.7480,0.165,-1.416,-0.051,5.31,7.57,4.27,-0.33,0.62,-1.08
2022-12-06 15:33:28.7580,0.181,-1.444,-0.041,5.08,7.95,4.06,-0.52,0.5,-0.96
2022-12-06 15:33:28.7680,0.182,-1.484,-0.058,5.06,8.23,4.06,-0.66,0.38,-0.84
2022-12-06 15:33:28.7780,0.183,-1.561,-0.093,5.06,8.83,4.29,-0.73,0.26,-0.76
2022-12-06 15:33:28.7880,0.151,-1.624,-0.125,5.19,9.59,4.6,-0.73,0.12,-0.73
2022-12-06 15:33:28.7980,0.104,-1.67,-0.18,5.63,10.17,4.92,-0.65,-0.05,-0.73
2022-12-06 15:33:28.8080,0.061,-1.676,-0.23,6.15,10.55,5.48,-0.65,-0.05,-0.73
2022-12-06 15:33:28.8180,0.05,-1.625,-0.238,6.53,10.43,5.77,-0.4,-0.47,-0.62
2022-12-06 15:33:28.8280,0.069,-1.523,-0.212,6.59,9.75,5.64,-0.33,-0.69,-0.4
2022-12-06 15:33:28.8380,0.127,-1.408,-0.162,6.29,8.65,5.22,-0.34,-0.9,-0.05
2022-12-06 15:33:28.8480,0.221,-1.338,-0.12,5.61,7.6,4.6,-0.38,-1.11,0.46
2022-12-06 15:33:28.8580,0.317,-1.323,-0.112,4.6,7.09,4.23,-0.42,-1.3,1.07
2022-12-06 15:33:28.8680,0.376,-1.33,-0.093,3.79,6.93,4.03,-0.48,-1.48,1.72
2022-12-06 15:33:28.8780,0.425,-1.376,-0.062,3.16,6.99,3.63,-0.48,-1.6032471656799316,2.33
2022-12-06 15:33:28.8890,0.459,-1.427,-0.042,2.64,7.3,3.21,-0.53,-1.66,2.9
2022-12-06 15:33:28.8980,0.485,-1.468,-0.028,2.16,7.55,2.91,-0.53,-1.66,3.4
2022-12-06 15:33:28.9090,0.491,-1.487,0.01,1.77,7.62,2.54,-0.55,-1.62,3.81
2022-12-06 15:33:28.9180,0.481,-1.485,0.031,1.56,7.47,2.03,-0.59,-1.58,4.15
2022-12-06 15:33:28.9280,0.496,-1.48,0.034,1.34,7.11,1.78,-0.62,-1.52,4.46
2022-12-06 15:33:28.9390,0.536,-1.485,0.024,0.71,6.83,1.65,-0.66,-1.45,4.73
2022-12-06 15:33:28.9490,0.54,-1.476,0.019,0.09,6.56,1.65,-0.72,-1.42,4.97
2022-12-06 15:33:28.9590,0.538,-1.466,0.038,-0.27,6.17,1.45,-0.81,-1.42,5.17
2022-12-06 15:33:28.9690,0.55,-1.47,0.043,-0.73,5.85,1.14,-0.92,-1.46,5.35
2022-12-06 15:33:28.9790,0.559,-1.478,0.045,-1.3,5.68,1.0,-1.06,-1.53,5.5
2022-12-06 15:33:28.9890,0.559,-1.484,0.061,-1.82,5.5,0.74,-1.2,-1.59,5.63
2022-12-06 15:33:28.9990,0.572,-1.488,0.063,-2.35,5.35,0.44,-1.33,-1.61,5.75
2022-12-06 15:33:29.0090,0.599,-1.493,0.052,-3.07,5.2,0.31,-1.42,-1.55,5.87
2022-12-06 15:33:29.0190,0.605,-1.504,0.034,-3.85,5.12,0.28,-1.52,-1.45,5.94
2022-12-06 15:33:29.0300,0.585,-1.515,0.011,-4.35,5.12,0.29,-1.64,-1.32,5.98
2022-12-06 15:33:29.0390,0.581,-1.52,0.011,-4.75,5.13,0.31,-1.83,-1.17,5.98
2022-12-06 15:33:29.0490,0.574,-1.504,0.033,-5.34,5.08,-0.03,-2.09,-1.01,5.95
2022-12-06 15:33:29.0590,0.548,-1.489,0.031,-5.76,4.84,-0.41,-2.37,-0.81,5.88
2022-12-06 15:33:29.0690,0.514,-1.496,0.006,-6.08,4.87,-0.51,-2.68,-0.6,5.74
2022-12-06 15:33:29.0790,0.435,-1.459,0.003,-6.14,4.88,-0.58,-3.02,-0.38,5.52
2022-12-06 15:33:29.0890,0.357,-1.427,-0.013,-5.83,4.55,-0.87,-3.34,-0.17,5.25
2022-12-06 15:33:29.0990,0.31,-1.429,-0.059,-5.64,4.54,-0.91,-3.61,0.07,4.95
2022-12-06 15:33:29.1090,0.308,-1.432,-0.095,-5.81,4.75,-0.8,-3.86,0.35,4.67
2022-12-06 15:33:29.1190,0.313,-1.436,-0.119,-6.29,4.99,-0.91,-4.08,0.64,4.39
2022-12-06 15:33:29.1290,0.309,-1.44,-0.148,-6.66,5.27,-1.05,-4.28,0.94,4.12
2022-12-06 15:33:29.1390,0.303,-1.434,-0.177,-6.94,5.54,-1.19,-4.45,1.25,3.86
2022-12-06 15:33:29.1490,0.295,-1.432,-0.212,-7.14,5.76,-1.33,-4.59,1.56,3.6
2022-12-06 15:33:29.1590,0.292,-1.42,-0.248,-7.3,6.05,-1.41,-4.69,1.86,3.34
2022-12-06 15:33:29.1690,0.28,-1.391,-0.293,-7.44,6.19,-1.45,-4.79,2.09,3.08
2022-12-06 15:33:29.1800,0.265,-1.338,-0.345,-7.46,6.18,-1.61,-4.79,2.09,3.08
2022-12-06 15:33:29.1900,0.229,-1.284,-0.374,-7.26,5.98,-1.34,-4.87,2.4,2.52
2022-12-06 15:33:29.2000,0.208,-1.218,-0.394,-7.05,5.81,-1.85,-4.89,2.43,2.24
2022-12-06 15:33:29.2090,0.169,-1.163,-0.452,-6.74,5.52,-1.75,-4.86,2.39,1.95
2022-12-06 15:33:29.2200,0.151,-1.123,-0.515,-6.41,5.48,-1.74,-4.75,2.35,1.69
2022-12-06 15:33:29.2300,0.137,-1.074,-0.532,-6.14,5.42,-1.36,-4.69,2.22,1.46
2022-12-06 15:33:29.2400,0.133,-0.998,-0.557,-6.07,5.27,-1.85,-4.58,2.06,1.25
2022-12-06 15:33:29.2500,0.111,-0.926,-0.591,-5.77,4.82,-1.56,-4.49,1.86,1.09
2022-12-06 15:33:29.2600,0.119,-0.88,-0.578,-5.67,4.67,-1.98,-4.39,1.63,0.95
2022-12-06 15:33:29.2700,0.078,-0.827,-0.635,-5.46,4.52,-1.96,-4.25,1.36,0.8
2022-12-06 15:33:29.2800,0.065,-0.821,-0.644,-5.03,4.52,-1.74,-4.12,1.14,0.65
2022-12-06 15:33:29.2900,0.065,-0.82,-0.624,-4.94,4.92,-1.99,-4.01,0.98,0.51
2022-12-06 15:33:29.3000,0.035,-0.775,-0.606,-4.78,5.11,-2.35,-3.91,0.87,0.35
2022-12-06 15:33:29.3100,0.001,-0.701,-0.586,-4.36,4.88,-2.67,-3.84,0.81,0.2
2022-12-06 15:33:29.3200,-0.021,-0.619,-0.561,-4.01,4.44,-3.01,-3.78,0.81,0.06
2022-12-06 15:33:29.3300,-0.038,-0.55,-0.553,-3.74,4.0,-3.33,-3.69,0.87,-0.07
2022-12-06 15:33:29.3400,-0.066,-0.498,-0.574,-3.48,3.71,-3.4,-3.54,0.99,-0.2
2022-12-06 15:33:29.3500,-0.1,-0.441,-0.619,-3.06,3.5,-3.18,-3.33,1.14,-0.32
2022-12-06 15:33:29.3600,-0.118,-0.392,-0.672,-2.65,3.22,-2.77,-3.06,1.28,-0.42
2022-12-06 15:33:29.3700,-0.121,-0.35,-0.719,-2.42,3.04,-2.34,-2.78,1.36,-0.48
2022-12-06 15:33:29.3800,-0.124,-0.313,-0.758,-2.28,2.87,-1.97,-2.5,1.33,-0.52
2022-12-06 15:33:29.3900,-0.134,-0.289,-0.791,-2.11,2.74,-1.66,-2.25,1.2,-0.54
2022-12-06 15:33:29.4000,-0.145,-0.279,-0.806,-1.89,2.75,-1.42,-2.04,0.97,-0.54
2022-12-06 15:33:29.4100,-0.158,-0.277,-0.806,-1.71,2.85,-1.37,-1.87,0.69,-0.55
2022-12-06 15:33:29.4200,-0.179,-0.276,-0.796,-1.49,3.0,-1.42,-1.73,0.42,-0.56
2022-12-06 15:33:29.4300,-0.198,-0.264,-0.778,-1.27,3.09,-1.56,-1.59,0.2,-0.57
2022-12-06 15:33:29.4400,-0.228,-0.249,-0.758,-1.04,3.09,-1.74,-1.45,0.08,-0.59
2022-12-06 15:33:29.4510,-0.25,-0.236,-0.734,-0.73,3.05,-1.94,-1.29,0.06,-0.61
2022-12-06 15:33:29.4600,-0.257,-0.216,-0.697,-0.59,3.02,-2.21,-1.16,0.12,-0.61
2022-12-06 15:33:29.4710,-0.267,-0.192,-0.658,-0.51,2.87,-2.6,-1.04,0.23,-0.6
2022-12-06 15:33:29.4800,-0.277,-0.171,-0.632,-0.39,2.74,-2.95,-0.96,0.33,-0.57
2022-12-06 15:33:29.4900,-0.282,-0.139,-0.609,-0.26,2.55,-3.17,-0.89,0.42,-0.53
2022-12-06 15:33:29.5010,-0.26,-0.115,-0.601,-0.27,2.31,-3.37,-0.85,0.45,-0.45
2022-12-06 15:33:29.5110,-0.245,-0.103,-0.604,-0.48,2.2,-3.38,-0.84,0.41,-0.36
2022-12-06 15:33:29.5210,-0.267,-0.076,-0.603,-0.46,2.13,-3.37,-0.86,0.31,-0.29
2022-12-06 15:33:29.5310,-0.289,-0.04,-0.596,-0.17,1.88,-3.4,-0.9,0.19,-0.23
2022-12-06 15:33:29.5410,-0.293,-0.017,-0.589,-0.02,1.64,-3.47,-0.95,0.09,-0.17
2022-12-06 15:33:29.5510,-0.292,-0.003,-0.589,-0.01,1.55,-3.5,-0.97,0.03,-0.12
2022-12-06 15:33:29.5610,-0.308,0.021,-0.581,0.01,1.47,-3.5,-0.99,0.0,-0.1
2022-12-06 15:33:29.5710,-0.344,0.053,-0.57,0.26,1.29,-3.59,-0.99,0.01,-0.12
2022-12-06 15:33:29.5810,-0.373,0.085,-0.572,0.63,1.05,-3.65,-0.97,0.06,-0.15
2022-12-06 15:33:29.5910,-0.369,0.109,-0.583,0.81,0.84,-3.56,-0.92,0.14,-0.16
2022-12-06 15:33:29.6010,-0.347,0.128,-0.585,0.68,0.72,-3.47,-0.87,0.22,-0.15
2022-12-06 15:33:29.6110,-0.34,0.147,-0.589,0.51,0.61,-3.45,-0.81,0.29,-0.14
2022-12-06 15:33:29.6210,-0.348,0.171,-0.605,0.54,0.48,-3.37,-0.73,0.33,-0.13
2022-12-06 15:33:29.6310,-0.356,0.192,-0.625,0.67,0.29,-3.17,-0.66,0.34,-0.12
2022-12-06 15:33:29.6410,-0.348,0.21,-0.637,0.73,0.17,-3.0,-0.59,0.31,-0.09
2022-12-06 15:33:29.6510,-0.314,0.223,-0.639,0.57,0.05,-2.91,-0.54,0.24,-0.04
2022-12-06 15:33:29.6610,-0.289,0.223,-0.648,0.24,0.03,-2.88,-0.5,0.13,0.01
2022-12-06 15:33:29.6710,-0.294,0.232,-0.665,0.12,0.06,-2.75,-0.43,-0.01,0.03
2022-12-06 15:33:29.6810,-0.311,0.249,-0.68,0.24,-0.04,-2.55,-0.35,-0.15,0.03
2022-12-06 15:33:29.6910,-0.317,0.261,-0.685,0.36,-0.16,-2.44,-0.24,-0.29,0.01
2022-12-06 15:33:29.7010,-0.316,0.273,-0.686,0.34,-0.26,-2.38,-0.13,-0.42,-0.02
2022-12-06 15:33:29.7110,-0.324,0.284,-0.674,0.3,-0.36,-2.41,-0.0,-0.55,-0.07
2022-12-06 15:33:29.7210,-0.347,0.304,-0.663,0.39,-0.5,-2.53,0.14,-0.65,-0.14
2022-12-06 15:33:29.7310,-0.355,0.334,-0.659,0.53,-0.76,-2.59,0.3,-0.73,-0.22
2022-12-06 15:33:29.7410,-0.347,0.363,-0.648,0.46,-1.11,-2.62,0.47,-0.8,-0.28
2022-12-06 15:33:29.7510,-0.344,0.394,-0.616,0.29,-1.44,-2.79,0.63,-0.85,-0.35
2022-12-06 15:33:29.7610,-0.368,0.436,-0.591,0.26,-1.86,-3.11,0.81,-0.88,-0.45
2022-12-06 15:33:29.7710,-0.398,0.478,-0.58,0.46,-2.38,-3.28,1.03,-0.87,-0.57
2022-12-06 15:33:29.7820,-0.413,0.492,-0.588,0.64,-2.88,-3.35,1.05,-0.91,-0.67
2022-12-06 15:33:29.7910,-0.411,0.365,-0.798,0.53,-2.52,-2.59,1.01,-0.97,-0.7
2022-12-06 15:33:29.8020,-0.484,0.471,-0.812,0.75,-2.18,-0.93,0.99,-0.82,-0.75
2022-12-06 15:33:29.8120,-0.5,0.435,-0.823,1.25,-2.95,-0.99,0.94,-0.56,-0.76
2022-12-06 15:33:29.8220,-0.479,0.491,-0.853,1.16,-2.92,-0.82,0.94,-0.56,-0.76
2022-12-06 15:33:29.8330,-0.441,0.478,-0.864,0.85,-3.54,-0.53,0.65,-0.38,-0.43
2022-12-06 15:33:29.8420,-0.398,0.354,-0.905,0.4,-2.97,-0.42,-0.13,-0.12,-0.2
2022-12-06 15:33:29.8520,-0.327,0.302,-0.977,-0.07,-1.69,0.2,-0.78,0.37,-0.03
2022-12-06 15:33:29.8620,-0.272,0.388,-1.018,-0.77,-1.77,0.81,-1.09,0.74,-0.05
2022-12-06 15:33:29.8720,-0.25,0.439,-1.172,-1.09,-2.54,1.3,-1.05,1.04,-0.25
2022-12-06 15:33:29.8820,-0.275,0.395,-1.316,-1.05,-2.65,3.23,-0.91,1.21,-0.63
2022-12-06 15:33:29.8920,-0.33,0.222,-1.334,-0.56,-1.72,4.06,-0.79,1.3,-1.04
2022-12-06 15:33:29.9020,-0.304,0.182,-1.283,-0.08,0.08,3.83,-0.8,1.29,-1.22
2022-12-06 15:33:29.9120,-0.285,0.334,-1.316,-0.42,-0.59,3.46,-0.88,1.32,-1.23
2022-12-06 15:33:29.9220,-0.287,0.458,-1.375,-0.33,-1.99,4.11,-0.96,1.34,-1.21
2022-12-06 15:33:29.9320,-0.253,0.485,-1.32,-0.32,-2.93,4.24,-1.05,1.27,-1.24
2022-12-06 15:33:29.9420,-0.214,0.363,-1.231,-0.64,-2.53,3.45,-1.12,1.04,-1.3
2022-12-06 15:33:29.9520,-0.183,0.265,-1.245,-0.94,-1.1,2.75,-1.07,0.75,-1.33
2022-12-06 15:33:29.9620,-0.151,0.277,-1.418,-1.16,-0.54,3.58,-0.85,0.59,-1.34
2022-12-06 15:33:29.9720,-0.105,0.294,-1.479,-1.54,-0.79,5.27,-0.62,0.55,-1.35
2022-12-06 15:33:29.9820,-0.101,0.268,-1.339,-1.88,-0.76,4.94,-0.47,0.52,-1.37
2022-12-06 15:33:29.9920,-0.158,0.25,-1.22,-1.66,-0.44,3.36,-0.33,0.51,-1.39
2022-12-06 15:33:30.0020,-0.23,0.29,-1.25,-0.96,-0.51,2.81,-0.15,0.53,-1.42
2022-12-06 15:33:30.0130,-0.318,0.302,-1.2,-0.21,-0.94,3.05,-0.05,0.49,-1.48
2022-12-06 15:33:30.0180,-0.374,0.274,-1.099,0.66,-0.9,2.15,-0.05,0.49,-1.48
2022-12-06 15:33:30.0320,-0.364,0.238,-1.103,0.92,-0.63,1.42,0.15,0.34,-1.54
2022-12-06 15:33:30.0420,-0.348,0.207,-1.095,0.75,-0.33,1.71,0.24,0.3,-1.56
2022-12-06 15:33:30.0520,-0.355,0.176,-1.031,0.66,-0.12,1.23,0.29,0.23,-1.61
2022-12-06 15:33:30.0620,-0.357,0.137,-0.995,0.76,0.14,0.68,0.29,0.16,-1.66
2022-12-06 15:33:30.0720,-0.339,0.111,-0.943,0.65,0.43,0.38,0.21,0.04,-1.71
2022-12-06 15:33:30.0820,-0.349,0.074,-0.839,0.53,0.62,-0.41,0.05,-0.15,-1.75
2022-12-06 15:33:30.0920,-0.345,0.047,-0.816,0.6,0.95,-1.22,-0.11,-0.35,-1.77
2022-12-06 15:33:30.1030,-0.321,0.03,-0.807,0.38,1.12,-1.24,-0.26,-0.55,-1.77
2022-12-06 15:33:30.1120,-0.307,0.016,-0.797,0.06,1.25,-1.36,-0.39,-0.7,-1.75
2022-12-06 15:33:30.1230,-0.314,0.006,-0.784,-0.07,1.37,-1.41,-0.52,-0.78,-1.73
2022-12-06 15:33:30.1320,-0.301,-0.005,-0.759,-0.14,1.44,-1.56,-0.64,-0.82,-1.69
2022-12-06 15:33:30.1420,-0.301,-0.023,-0.751,-0.38,1.62,-1.72,-0.78,-0.84,-1.63
2022-12-06 15:33:30.1530,-0.321,-0.025,-0.767,-0.38,1.74,-1.69,-0.9,-0.86,-1.56
2022-12-06 15:33:30.1630,-0.315,-0.044,-0.802,-0.34,1.82,-1.38,-1.0,-0.86,-1.46
2022-12-06 15:33:30.1730,-0.311,-0.076,-0.813,-0.56,2.13,-1.06,-1.07,-0.88,-1.36
2022-12-06 15:33:30.1830,-0.333,-0.101,-0.816,-0.6,2.48,-0.95,-1.12,-0.87,-1.26
2022-12-06 15:33:30.1930,-0.362,-0.13,-0.813,-0.43,2.77,-0.88,-1.13,-0.82,-1.17
2022-12-06 15:33:30.2030,-0.388,-0.155,-0.799,-0.25,3.13,-0.91,-1.13,-0.76,-1.11
2022-12-06 15:33:30.2130,-0.402,-0.18,-0.789,-0.09,3.4,-1.0,-1.1,-0.71,-1.04
2022-12-06 15:33:30.2230,-0.407,-0.223,-0.786,-0.1,3.77,-1.02,-1.05,-0.68,-0.95
2022-12-06 15:33:30.2330,-0.415,-0.253,-0.797,-0.1,4.23,-0.97,-1.0,-0.73,-0.84
2022-12-06 15:33:30.2430,-0.418,-0.264,-0.829,-0.14,4.5,-0.74,-0.9,-0.83,-0.69
2022-12-06 15:33:30.2530,-0.431,-0.267,-0.877,-0.16,4.61,-0.28,-0.76,-0.98,-0.52
2022-12-06 15:33:30.2630,-0.438,-0.267,-0.904,-0.13,4.67,0.2,-0.58,-1.13,-0.32
2022-12-06 15:33:30.2730,-0.444,-0.264,-0.908,-0.2,4.69,0.44,-0.4,-1.29,-0.11
2022-12-06 15:33:30.2830,-0.455,-0.262,-0.905,-0.24,4.69,0.5,-0.2,-1.44,0.1
2022-12-06 15:33:30.2930,-0.476,-0.257,-0.892,-0.21,4.67,0.52,-0.2,-1.44,0.1
2022-12-06 15:33:30.3030,-0.494,-0.258,-0.863,-0.13,4.66,0.42,0.22,-1.62,0.46
2022-12-06 15:33:30.3130,-0.514,-0.259,-0.821,-0.07,4.67,0.15,0.43,-1.59,0.6
2022-12-06 15:33:30.3230,-0.524,-0.257,-0.779,-0.01,4.67,-0.21,0.64,-1.48,0.72
2022-12-06 15:33:30.3340,-0.518,-0.261,-0.74,-0.07,4.62,-0.57,0.86,-1.31,0.83
2022-12-06 15:33:30.3430,-0.505,-0.282,-0.725,-0.24,4.7,-0.82,0.86,-1.31,0.83
2022-12-06 15:33:30.3540,-0.479,-0.317,-0.705,-0.47,4.92,-0.91,1.35,-1.02,1.02
2022-12-06 15:33:30.3630,-0.419,-0.364,-0.685,-0.89,5.25,-1.11,1.59,-0.98,1.16
2022-12-06 15:33:30.3740,-0.347,-0.406,-0.671,-1.64,5.65,-1.27,1.85,-1.05,1.32
2022-12-06 15:33:30.3840,-0.307,-0.434,-0.669,-2.32,5.92,-1.34,2.13,-1.21,1.48
2022-12-06 15:33:30.3930,-0.294,-0.445,-0.655,-2.65,6.07,-1.35,2.44,-1.41,1.62
2022-12-06 15:33:30.4040,-0.276,-0.441,-0.637,-2.85,5.98,-1.46,2.77,-1.6,1.76
2022-12-06 15:33:30.4140,-0.234,-0.446,-0.6,-3.22,5.85,-1.65,3.13,-1.78,1.9
2022-12-06 15:33:30.4240,-0.187,-0.455,-0.557,-3.79,5.78,-1.99,3.51,-2.0,2.02
2022-12-06 15:33:30.4340,-0.126,-0.459,-0.572,-4.4,5.71,-2.24,4.01,-2.21,2.13
2022-12-06 15:33:30.4440,-0.048,-0.463,-0.604,-5.24,5.52,-1.79,4.6,-2.43,2.22
2022-12-06 15:33:30.4540,0.006,-0.479,-0.597,-6.14,5.39,-1.47,5.17,-2.61,2.24
2022-12-06 15:33:30.4640,0.046,-0.49,-0.549,-6.73,5.29,-1.6,5.7,-2.67,2.2
2022-12-06 15:33:30.4740,0.1,-0.505,-0.522,-7.36,5.12,-1.9,6.18,-2.61,2.12
2022-12-06 15:33:30.4840,0.155,-0.52,-0.511,-8.1,4.97,-1.92,6.62,-2.44,2.0
2022-12-06 15:33:30.4940,0.184,-0.54,-0.521,-8.73,4.79,-1.78,7.06,-2.2,1.84
2022-12-06 15:33:30.5040,0.198,-0.565,-0.544,-9.09,4.65,-1.41,7.47,-1.89,1.62
2022-12-06 15:33:30.5140,0.2,-0.598,-0.54,-9.3,4.52,-1.06,7.81,-1.56,1.35
2022-12-06 15:33:30.5240,0.21,-0.672,-0.529,-9.44,4.57,-0.96,8.06,-1.28,1.02
2022-12-06 15:33:30.5340,0.212,-0.732,-0.529,-9.64,4.89,-0.79,8.21,-1.08,0.64
2022-12-06 15:33:30.5440,0.201,-0.79,-0.545,-9.65,4.96,-0.47,8.28,-0.95,0.19
2022-12-06 15:33:30.5540,0.197,-0.859,-0.54,-9.63,5.14,-0.05,8.21,-0.88,-0.31
2022-12-06 15:33:30.5640,0.17,-0.903,-0.518,-9.55,5.29,0.11,8.01,-0.85,-0.89
2022-12-06 15:33:30.5740,0.138,-0.939,-0.499,-9.24,5.16,0.25,7.7,-0.83,-1.5
2022-12-06 15:33:30.5840,0.124,-0.986,-0.481,-8.92,5.1,0.44,7.3,-0.78,-2.12
2022-12-06 15:33:30.5940,0.152,-1.012,-0.455,-8.86,5.01,0.62,6.84,-0.68,-2.68
2022-12-06 15:33:30.6040,0.186,-1.058,-0.445,-9.11,4.81,0.77,6.38,-0.5,-3.17
2022-12-06 15:33:30.6140,0.191,-1.122,-0.454,-9.16,4.92,1.14,5.95,-0.26,-3.59
2022-12-06 15:33:30.6240,0.201,-1.164,-0.448,-8.97,5.03,1.56,5.54,0.04,-3.95
2022-12-06 15:33:30.6340,0.205,-1.222,-0.443,-8.83,5.01,1.78,5.18,0.4,-4.26
2022-12-06 15:33:30.6440,0.185,-1.295,-0.453,-8.46,5.28,2.12,4.85,0.82,-4.55
2022-12-06 15:33:30.6550,0.152,-1.364,-0.467,-7.86,5.54,2.5,4.57,1.25,-4.84
2022-12-06 15:33:30.6650,0.117,-1.452,-0.481,-7.09,5.95,2.93,4.3,1.62,-5.1
2022-12-06 15:33:30.6750,0.122,-1.507,-0.473,-6.42,6.36,3.22,4.0,1.91,-5.3
2022-12-06 15:33:30.6850,0.148,-1.571,-0.461,-6.13,6.53,3.32,3.67,2.12,-5.44
2022-12-06 15:33:30.6950,0.157,-1.653,-0.462,-5.85,6.97,3.45,3.34,2.28,-5.54
2022-12-06 15:33:30.7050,0.156,-1.732,-0.474,-5.35,7.52,3.7,3.02,2.42,-5.61
2022-12-06 15:33:30.7150,0.163,-1.79,-0.492,-4.83,7.99,4.01,2.76,2.54,-5.66
2022-12-06 15:33:30.7250,0.162,-1.855,-0.522,-4.36,8.36,4.42,2.53,2.63,-5.69
2022-12-06 15:33:30.7350,0.16,-1.915,-0.528,-3.75,8.9,4.81,2.31,2.64,-5.72
2022-12-06 15:33:30.7450,0.178,-1.932,-0.535,-3.25,9.21,5.0,2.13,2.59,-5.71
2022-12-06 15:33:30.7560,0.182,-1.957,-0.552,-2.86,9.25,5.28,2.13,2.59,-5.71
2022-12-06 15:33:30.7650,0.169,-1.988,-0.561,-2.26,9.54,5.62,1.82,2.36,-5.65
2022-12-06 15:33:30.7750,0.157,-1.997,-0.561,-1.56,9.74,5.81,1.7,2.23,-5.59
2022-12-06 15:33:30.7850,0.173,-2.003,-0.565,-0.98,9.81,6.01,1.61,2.12,-5.48
2022-12-06 15:33:30.7950,0.195,-2.063,-0.579,-0.69,10.07,6.22,1.55,2.05,-5.35
2022-12-06 15:33:30.8050,0.209,-2.104,-0.592,-0.38,10.8,6.58,1.53,2.0,-5.21
2022-12-06 15:33:30.8150,0.226,-2.144,-0.609,-0.04,11.24,6.9,1.5,1.89,-5.04
2022-12-06 15:33:30.8250,0.196,-2.132,-0.597,0.34,11.68,7.15,1.43,1.69,-4.9
2022-12-06 15:33:30.8360,0.124,-2.083,-0.592,1.3,11.47,7.19,1.43,1.69,-4.9
2022-12-06 15:33:30.8460,0.071,-2.047,-0.591,2.38,11.22,7.34,1.26,1.18,-4.68
2022-12-06 15:33:30.8560,0.014,-2.01,-0.589,3.28,11.04,7.48,1.19,1.0,-4.61
2022-12-06 15:33:30.8660,-0.044,-1.969,-0.574,4.26,10.89,7.56,1.12,0.87,-4.54
2022-12-06 15:33:30.8750,-0.091,-1.917,-0.562,5.16,10.64,7.52,1.04,0.81,-4.45
2022-12-06 15:33:30.8850,-0.113,-1.889,-0.559,5.9,10.43,7.56,0.98,0.82,-4.31
2022-12-06 15:33:30.8950,-0.122,-1.888,-0.577,6.36,10.48,7.74,0.93,0.88,-4.15
2022-12-06 15:33:30.9050,-0.136,-1.907,-0.6,6.77,10.8,8.06,0.86,0.89,-3.96
2022-12-06 15:33:30.9150,-0.165,-1.918,-0.625,7.23,11.25,8.4,0.74,0.8,-3.74
2022-12-06 15:33:30.9250,-0.185,-1.891,-0.651,7.76,11.47,8.75,0.57,0.62,-3.5
2022-12-06 15:33:30.9350,-0.217,-1.832,-0.659,8.2,11.3,9.04,0.33,0.36,-3.22
2022-12-06 15:33:30.9460,-0.229,-1.751,-0.637,8.73,10.82,9.03,0.03,0.07,-2.9
2022-12-06 15:33:30.9550,-0.218,-1.684,-0.621,8.88,10.2,8.79,-0.27,-0.2,-2.54
2022-12-06 15:33:30.9650,-0.232,-1.64,-0.592,9.02,9.86,8.59,-0.59,-0.47,-2.18
2022-12-06 15:33:30.9760,-0.249,-1.572,-0.546,9.37,9.42,8.13,-0.86,-0.71,-1.81
2022-12-06 15:33:30.9860,-0.235,-1.539,-0.507,9.55,8.96,7.57,-1.05,-0.94,-1.44
2022-12-06 15:33:30.9960,-0.232,-1.496,-0.463,9.49,8.75,7.06,-1.13,-1.12,-1.06
2022-12-06 15:33:31.0060,-0.243,-1.436,-0.403,9.64,8.25,6.42,-1.14,-1.25,-0.66
2022-12-06 15:33:31.0160,-0.228,-1.403,-0.32,9.74,7.73,5.53,-1.06,-1.28,-0.27
2022-12-06 15:33:31.0260,-0.168,-1.421,-0.278,9.45,7.59,4.7,-0.88,-1.22,0.15
2022-12-06 15:33:31.0360,-0.102,-1.448,-0.268,8.82,7.83,4.26,-0.6,-1.09,0.58
2022-12-06 15:33:31.0460,-0.033,-1.454,-0.275,8.1,7.96,4.18,-0.28,-1.0,1.02
2022-12-06 15:33:31.0560,-0.008,-1.43,-0.269,7.49,7.84,4.08,0.04,-0.99,1.42
2022-12-06 15:33:31.0660,0.004,-1.401,-0.294,7.3,7.41,4.05,0.35,-1.08,1.78
2022-12-06 15:33:31.0760,0.071,-1.402,-0.326,6.89,7.11,4.32,0.62,-1.26,2.11
2022-12-06 15:33:31.0860,0.141,-1.407,-0.346,5.99,7.01,4.53,0.83,-1.53,2.39
2022-12-06 15:33:31.0960,0.181,-1.398,-0.345,5.29,6.86,4.63,0.98,-1.86,2.64
2022-12-06 15:33:31.1060,0.215,-1.384,-0.323,4.77,6.56,4.46,1.06,-2.22,2.88
2022-12-06 15:33:31.1160,0.249,-1.361,-0.286,4.25,6.21,4.11,1.1,-2.52,3.12
2022-12-06 15:33:31.1260,0.289,-1.349,-0.244,3.69,5.81,3.62,1.12,-2.73,3.37
2022-12-06 15:33:31.1360,0.336,-1.338,-0.202,3.04,5.53,3.12,1.14,-2.83,3.62
2022-12-06 15:33:31.1460,0.378,-1.324,-0.144,2.29,5.17,2.6,1.14,-2.85,3.85
2022-12-06 15:33:31.1560,0.404,-1.328,-0.105,1.68,4.87,1.97,1.13,-2.83,4.04
2022-12-06 15:33:31.1660,0.46,-1.349,-0.082,1.02,4.78,1.61,1.1,-2.8,4.22
2022-12-06 15:33:31.1760,0.509,-1.34,-0.067,0.08,4.71,1.38,1.06,-2.76,4.37
2022-12-06 15:33:31.1860,0.538,-1.33,-0.064,-0.64,4.35,1.21,1.04,-2.69,4.49
2022-12-06 15:33:31.1960,0.592,-1.338,-0.078,-1.38,4.17,1.26,1.04,-2.59,4.61
2022-12-06 15:33:31.2060,0.654,-1.334,-0.088,-2.4,4.04,1.36,1.05,-2.48,4.72
2022-12-06 15:33:31.2160,0.699,-1.318,-0.1,-3.38,3.8,1.5,1.05,-2.37,4.84
2022-12-06 15:33:31.2260,0.717,-1.322,-0.097,-4.15,3.48,1.56,1.04,-2.28,4.94
2022-12-06 15:33:31.2360,0.736,-1.35,-0.11,-4.75,3.58,1.66,1.02,-2.17,5.01
2022-12-06 15:33:31.2460,0.77,-1.363,-0.095,-5.46,3.67,1.75,0.97,-2.06,5.08
2022-12-06 15:33:31.2560,0.802,-1.381,-0.091,-6.32,3.78,1.63,0.91,-1.94,5.11
2022-12-06 15:33:31.2670,0.793,-1.373,-0.102,-6.98,3.78,1.76,0.83,-1.83,5.09
2022-12-06 15:33:31.2770,0.772,-1.384,-0.102,-7.27,3.73,1.89,0.73,-1.76,5.01
2022-12-06 15:33:31.2870,0.744,-1.394,-0.105,-7.54,3.85,1.94,0.63,-1.71,4.89
2022-12-06 15:33:31.2970,0.735,-1.387,-0.108,-7.69,3.93,2.08,0.63,-1.65,4.79
2022-12-06 15:33:31.3070,0.778,-1.362,-0.082,-8.31,3.81,2.05,0.54,-1.65,4.79
2022-12-06 15:33:31.3170,0.803,-1.328,-0.068,-9.15,3.61,1.86,0.4,-1.46,4.67
2022-12-06 15:33:31.3270,0.812,-1.274,-0.058,-9.73,3.26,1.83,0.38,-1.29,4.62
2022-12-06 15:33:31.3370,0.833,-1.251,-0.033,-10.27,2.9,1.73,0.37,-1.06,4.58
2022-12-06 15:33:31.3470,0.851,-1.231,-0.018,-10.92,2.88,1.57,0.37,-0.78,4.54
2022-12-06 15:33:31.3570,0.844,-1.177,0.003,-11.42,2.68,1.47,0.37,-0.48,4.45
2022-12-06 15:33:31.3670,0.821,-1.108,0.029,-11.68,2.24,1.28,0.34,-0.22,4.34
2022-12-06 15:33:31.3770,0.802,-1.043,0.066,-11.82,1.69,1.02,0.28,-0.04,4.2
2022-12-06 15:33:31.3870,0.789,-0.999,0.075,-12.07,1.32,0.75,0.24,0.06,4.02
2022-12-06 15:33:31.3970,0.758,-0.964,0.064,-12.2,1.08,0.76,0.22,0.11,3.8
2022-12-06 15:33:31.4070,0.715,-0.951,0.056,-12.2,1.02,0.91,0.2,0.09,3.52
2022-12-06 15:33:31.4170,0.673,-0.907,0.068,-11.98,1.0,0.93,0.17,0.02,3.22
2022-12-06 15:33:31.4270,0.67,-0.87,0.087,-12.0,0.66,0.76,0.14,-0.04,2.9
2022-12-06 15:33:31.4370,0.657,-0.861,0.099,-12.18,0.61,0.64,0.11,-0.08,2.56
2022-12-06 15:33:31.4470,0.645,-0.853,0.116,-12.21,0.66,0.48,0.09,-0.04,2.22
2022-12-06 15:33:31.4570,0.645,-0.841,0.127,-12.33,0.72,0.38,0.07,0.09,1.86
2022-12-06 15:33:31.4670,0.619,-0.834,0.127,-12.38,0.66,0.26,0.08,0.3,1.46
2022-12-06 15:33:31.4770,0.593,-0.881,0.112,-12.18,0.88,0.32,0.11,0.55,1.05
2022-12-06 15:33:31.4870,0.578,-0.913,0.095,-12.07,1.43,0.45,0.15,0.82,0.62
2022-12-06 15:33:31.4970,0.556,-0.926,0.083,-11.93,1.65,0.56,0.16,1.06,0.18
2022-12-06 15:33:31.5070,0.543,-0.955,0.083,-11.78,1.84,0.58,0.13,1.23,-0.25
2022-12-06 15:33:31.5170,0.505,-0.948,0.087,-11.56,2.04,0.47,0.07,1.29,-0.67
2022-12-06 15:33:31.5270,0.492,-0.906,0.079,-11.15,1.74,0.39,0.0,1.27,-1.03
2022-12-06 15:33:31.5380,0.519,-0.887,0.066,-11.15,1.28,0.42,-0.06,1.19,-1.32
2022-12-06 15:33:31.5470,0.516,-0.889,0.06,-11.28,1.12,0.46,-0.13,1.07,-1.6
2022-12-06 15:33:31.5580,0.482,-0.899,0.063,-10.97,1.04,0.41,-0.19,0.97,-1.91
2022-12-06 15:33:31.5670,0.437,-0.947,0.062,-10.43,1.14,0.31,-0.19,0.97,-1.91
2022-12-06 15:33:31.5780,0.407,-1.005,0.071,-9.84,1.57,0.22,-0.3,0.9,-2.61
2022-12-06 15:33:31.5880,0.379,-1.028,0.1,-9.38,1.89,-0.02,-0.36,0.91,-2.99
2022-12-06 15:33:31.5980,0.354,-1.017,0.125,-8.83,1.78,-0.39,-0.42,0.95,-3.38
2022-12-06 15:33:31.6080,0.354,-1.015,0.137,-8.38,1.49,-0.69,-0.45,1.01,-3.74
2022-12-06 15:33:31.6180,0.345,-1.019,0.136,-8.08,1.33,-0.83,-0.43,1.09,-4.08
2022-12-06 15:33:31.6280,0.327,-1.013,0.14,-7.55,1.14,-0.92,-0.39,1.18,-4.4
2022-12-06 15:33:31.6380,0.327,-1.02,0.136,-7.03,0.91,-1.04,-0.3,1.28,-4.68
2022-12-06 15:33:31.6480,0.326,-1.038,0.12,-6.63,0.88,-1.01,-0.17,1.38,-4.94
2022-12-06 15:33:31.6580,0.307,-1.047,0.107,-6.08,0.85,-0.9,-0.03,1.46,-5.19
2022-12-06 15:33:31.6680,0.299,-1.065,0.104,-5.4,0.82,-0.85,0.1,1.54,-5.4
2022-12-06 15:33:31.6780,0.3,-1.1,0.105,-4.87,0.93,-0.87,0.21,1.6,-5.57
2022-12-06 15:33:31.6880,0.312,-1.141,0.112,-4.34,1.24,-0.88,0.21,1.6,-5.57
2022-12-06 15:33:31.6980,0.365,-1.164,0.114,-4.04,1.51,-0.97,0.32,1.72,-5.72
2022-12-06 15:33:31.7080,0.421,-1.186,0.097,-4.08,1.68,-0.88,0.35,1.83,-5.69
2022-12-06 15:33:31.7180,0.449,-1.221,0.071,-3.98,1.95,-0.65,0.39,1.95,-5.64
2022-12-06 15:33:31.7280,0.442,-1.261,0.04,-3.59,2.33,-0.31,0.4,2.04,-5.61
2022-12-06 15:33:31.7380,0.416,-1.326,0.018,-2.87,2.88,0.03,0.38,2.08,-5.6
2022-12-06 15:33:31.7480,0.396,-1.383,-0.005,-2.08,3.63,0.31,0.33,2.05,-5.61
2022-12-06 15:33:31.7580,0.386,-1.422,-0.023,-1.4,4.24,0.6,0.27,1.98,-5.61
2022-12-06 15:33:31.7680,0.379,-1.434,-0.035,-0.8,4.68,0.82,0.21,1.91,-5.58
2022-12-06 15:33:31.7780,0.387,-1.447,-0.052,-0.25,4.93,1.03,0.15,1.86,-5.52
2022-12-06 15:33:31.7880,0.401,-1.487,-0.075,0.09,5.37,1.28,0.12,1.82,-5.44
2022-12-06 15:33:31.7980,0.403,-1.521,-0.102,0.48,6.01,1.64,0.12,1.82,-5.44
2022-12-06 15:33:31.8080,0.423,-1.543,-0.116,0.86,6.51,1.94,0.06,1.77,-5.16
2022-12-06 15:33:31.8180,0.45,-1.582,-0.138,1.0,7.04,2.18,0.04,1.71,-4.98
2022-12-06 15:33:31.8280,0.441,-1.627,-0.159,1.2,7.74,2.51,-0.0,1.6,-4.8
2022-12-06 15:33:31.8380,0.391,-1.635,-0.159,1.84,8.38,2.73,-0.07,1.45,-4.62
2022-12-06 15:33:31.8480,0.363,-1.616,-0.168,2.63,8.56,2.81,-0.13,1.31,-4.42
2022-12-06 15:33:31.8590,0.358,-1.617,-0.181,3.1,8.73,3.02,-0.19,1.19,-4.19
2022-12-06 15:33:31.8690,0.357,-1.615,-0.18,3.39,9.02,3.15,-0.24,1.09,-3.94
2022-12-06 15:33:31.8790,0.344,-1.629,-0.19,3.67,9.3,3.22,-0.29,1.03,-3.68
2022-12-06 15:33:31.8890,0.306,-1.625,-0.179,4.11,9.7,3.34,-0.34,0.99,-3.44
2022-12-06 15:33:31.8990,0.275,-1.61,-0.167,4.69,9.81,3.22,-0.39,1.0,-3.18
2022-12-06 15:33:31.9090,0.264,-1.602,-0.167,5.07,9.94,3.22,-0.44,1.04,-2.92
2022-12-06 15:33:31.9190,0.261,-1.587,-0.166,5.29,10.05,3.26,-0.48,1.11,-2.62
2022-12-06 15:33:31.9290,0.251,-1.56,-0.177,5.44,10.05,3.37,-0.52,1.17,-2.33
2022-12-06 15:33:31.9390,0.215,-1.526,-0.187,5.72,9.93,3.55,-0.52,1.17,-2.33
2022-12-06 15:33:31.9490,0.177,-1.495,-0.202,6.22,9.71,3.69,-0.61,1.12,-1.8
2022-12-06 15:33:31.9590,0.17,-1.503,-0.231,6.55,9.68,3.98,-0.64,1.0,-1.53
2022-12-06 15:33:31.9690,0.179,-1.516,-0.243,6.59,9.92,4.26,-0.67,0.82,-1.27
2022-12-06 15:33:31.9790,0.177,-1.527,-0.252,6.56,10.14,4.38,-0.7,0.63,-1.03
2022-12-06 15:33:31.9890,0.154,-1.526,-0.255,6.7,10.26,4.46,-0.71,0.44,-0.82
2022-12-06 15:33:31.9990,0.12,-1.51,-0.256,6.98,10.27,4.48,-0.69,0.28,-0.63
2022-12-06 15:33:32.0090,0.09,-1.498,-0.27,7.39,10.09,4.51,-0.69,0.28,-0.63
2022-12-06 15:33:32.0190,0.088,-1.499,-0.275,7.56,10.09,4.64,-0.53,0.01,-0.24
2022-12-06 15:33:32.0290,0.073,-1.489,-0.28,7.61,10.06,4.62,-0.4,-0.15,-0.03
2022-12-06 15:33:32.0390,0.061,-1.457,-0.289,7.79,9.9,4.67,-0.25,-0.31,0.21
2022-12-06 15:33:32.0490,0.076,-1.41,-0.29,7.8,9.47,4.69,-0.09,-0.5,0.51
2022-12-06 15:33:32.0590,0.098,-1.347,-0.28,7.58,8.9,4.61,0.05,-0.72,0.86
2022-12-06 15:33:32.0690,0.131,-1.295,-0.265,7.31,8.2,4.42,0.19,-0.94,1.26
2022-12-06 15:33:32.0790,0.177,-1.264,-0.247,6.88,7.66,4.19,0.33,-1.16,1.71
2022-12-06 15:33:32.0890,0.224,-1.247,-0.221,6.34,7.25,3.9,0.45,-1.34,2.17
2022-12-06 15:33:32.0990,0.281,-1.256,-0.205,5.75,6.99,3.57,0.59,-1.45,2.62
2022-12-06 15:33:32.1100,0.339,-1.281,-0.194,5.05,6.94,3.36,0.75,-1.49,3.03
2022-12-06 15:33:32.1200,0.393,-1.32,-0.189,4.35,6.98,3.19,0.91,-1.49,3.39
2022-12-06 15:33:32.1290,0.462,-1.372,-0.192,3.6,7.17,3.11,1.08,-1.49,3.71
2022-12-06 15:33:32.1400,0.536,-1.426,-0.206,2.65,7.41,3.14,1.24,-1.49,4.0
2022-12-06 15:33:32.1500,0.599,-1.474,-0.227,1.72,7.66,3.28,1.4,-1.52,4.27
2022-12-06 15:33:32.1600,0.647,-1.5,-0.245,0.88,7.75,3.47,1.53,-1.6,4.49
2022-12-06 15:33:32.1700,0.696,-1.518,-0.26,0.13,7.67,3.64,1.63,-1.73,4.69
2022-12-06 15:33:32.1800,0.724,-1.536,-0.268,-0.65,7.55,3.74,1.71,-1.89,4.85
2022-12-06 15:33:32.1900,0.728,-1.507,-0.273,-1.16,7.34,3.88,1.75,-2.06,4.97
2022-12-06 15:33:32.2000,0.721,-1.468,-0.252,-1.52,6.65,3.79,1.77,-2.22,5.05
2022-12-06 15:33:32.2100,0.706,-1.44,-0.24,-1.8,6.09,3.66,1.75,-2.36,5.09
2022-12-06 15:33:32.2200,0.697,-1.418,-0.223,-2.04,5.58,3.53,1.72,-2.46,5.11
2022-12-06 15:33:32.2300,0.706,-1.406,-0.216,-2.44,5.19,3.43,1.69,-2.52,5.11
2022-12-06 15:33:32.2400,0.699,-1.385,-0.208,-2.93,4.88,3.4,1.65,-2.55,5.08
2022-12-06 15:33:32.2500,0.666,-1.354,-0.187,-3.17,4.44,3.34,1.57,-2.54,5.03
2022-12-06 15:33:32.2600,0.637,-1.331,-0.164,-3.25,4.0,3.15,1.47,-2.52,4.97
2022-12-06 15:33:32.2700,0.643,-1.333,-0.156,-3.48,3.71,3.04,1.34,-2.48,4.92
2022-12-06 15:33:32.2800,0.685,-1.369,-0.149,-4.13,3.78,3.04,1.21,-2.43,4.91
2022-12-06 15:33:32.2900,0.704,-1.385,-0.131,-4.95,4.03,2.99,1.05,-2.35,4.92
2022-12-06 15:33:32.3000,0.708,-1.38,-0.125,-5.46,4.01,2.88,0.87,-2.22,4.95
2022-12-06 15:33:32.3100,0.722,-1.377,-0.122,-5.97,3.9,2.92,0.71,-2.05,4.99
2022-12-06 15:33:32.3200,0.728,-1.379,-0.118,-6.58,3.87,2.92,0.52,-1.86,5.03
2022-12-06 15:33:32.3300,0.703,-1.38,-0.094,-6.96,3.88,2.88,0.31,-1.68,5.04
2022-12-06 15:33:32.3400,0.683,-1.395,-0.071,-7.15,3.92,2.61,0.1,-1.49,5.04
2022-12-06 15:33:32.3500,0.663,-1.427,-0.06,-7.45,4.19,2.47,-0.11,-1.3,5.02
2022-12-06 15:33:32.3600,0.647,-1.447,-0.045,-7.7,4.53,2.32,-0.28,-1.09,4.99
2022-12-06 15:33:32.3700,0.651,-1.454,-0.05,-8.06,4.74,2.22,-0.39,-0.84,4.97
2022-12-06 15:33:32.3800,0.665,-1.442,-0.068,-8.62,4.83,2.31,-0.44,-0.58,4.96
2022-12-06 15:33:32.3900,0.678,-1.428,-0.089,-9.21,4.8,2.47,-0.44,-0.33,4.97
2022-12-06 15:33:32.4000,0.683,-1.406,-0.106,-9.79,4.79,2.65,-0.42,-0.14,4.95
2022-12-06 15:33:32.4100,0.656,-1.357,-0.097,-10.18,4.64,2.7,-0.4,-0.02,4.9
2022-12-06 15:33:32.4200,0.618,-1.294,-0.086,-10.27,4.24,2.51,-0.37,0.03,4.83
2022-12-06 15:33:32.4300,0.606,-1.262,-0.088,-10.36,3.91,2.45,-0.34,0.02,4.74
2022-12-06 15:33:32.4410,0.622,-1.241,-0.073,-10.79,3.88,2.39,-0.3,-0.06,4.66
2022-12-06 15:33:32.4510,0.632,-1.21,-0.064,-11.34,3.89,2.21,-0.26,-0.19,4.56
2022-12-06 15:33:32.4610,0.625,-1.163,-0.056,-11.73,3.76,2.15,-0.22,-0.38,4.46
2022-12-06 15:33:32.4710,0.615,-1.1,-0.038,-11.97,3.5,2.05,-0.22,-0.38,4.46
2022-12-06 15:33:32.4810,0.601,-1.024,-0.018,-12.2,3.07,1.86,-0.13,-0.85,4.19
2022-12-06 15:33:32.4910,0.578,-0.945,-0.016,-12.29,2.57,1.79,-0.04,-1.05,4.02
2022-12-06 15:33:32.5010,0.559,-0.883,-0.013,-12.35,2.08,1.85,0.06,-1.17,3.82
2022-12-06 15:33:32.5110,0.541,-0.88,-0.001,-12.38,1.9,1.9,0.15,-1.19,3.57
2022-12-06 15:33:32.5210,0.54,-0.917,0.022,-12.48,2.35,1.81,0.2,-1.11,3.29
2022-12-06 15:33:32.5310,0.509,-0.901,0.051,-12.61,2.84,1.65,0.2,-0.93,2.93
2022-12-06 15:33:32.5410,0.446,-0.847,0.094,-12.29,2.67,1.41,0.13,-0.71,2.51
2022-12-06 15:33:32.5510,0.407,-0.821,0.126,-11.81,2.36,1.01,0.05,-0.45,2.04
2022-12-06 15:33:32.5610,0.416,-0.828,0.119,-11.74,2.43,0.88,-0.02,-0.12,1.55
2022-12-06 15:33:32.5710,0.397,-0.781,0.117,-11.89,2.5,0.99,-0.08,0.21,0.99
2022-12-06 15:33:32.5810,0.351,-0.703,0.123,-11.58,1.87,0.92,-0.13,0.52,0.39
2022-12-06 15:33:32.5910,0.326,-0.656,0.126,-11.21,1.2,0.81,-0.16,0.75,-0.25
2022-12-06 15:33:32.6010,0.29,-0.613,0.131,-10.97,0.78,0.73,-0.21,0.86,-0.92
2022-12-06 15:33:32.6110,0.271,-0.571,0.156,-10.54,0.19,0.51,-0.28,0.88,-1.56
2022-12-06 15:33:32.6210,0.317,-0.59,0.176,-10.49,-0.17,0.18,-0.34,0.83,-2.1
2022-12-06 15:33:32.6310,0.386,-0.631,0.199,-10.99,-0.01,-0.1,-0.4,0.74,-2.55
2022-12-06 15:33:32.6410,0.431,-0.678,0.203,-11.45,0.18,-0.38,-0.43,0.7,-2.94
2022-12-06 15:33:32.6510,0.439,-0.743,0.19,-11.59,0.46,-0.41,-0.4,0.72,-3.32
2022-12-06 15:33:32.6610,0.405,-0.837,0.169,-11.29,0.97,-0.32,-0.33,0.82,-3.73
2022-12-06 15:33:32.6710,0.346,-0.924,0.149,-10.58,1.62,-0.19,-0.23,0.98,-4.17
2022-12-06 15:33:32.6810,0.292,-0.992,0.129,-9.69,2.11,-0.08,-0.09,1.19,-4.64
2022-12-06 15:33:32.6910,0.265,-1.031,0.121,-8.9,2.38,0.01,0.04,1.39,-5.08
2022-12-06 15:33:32.7010,0.267,-1.047,0.128,-8.37,2.35,-0.07,0.15,1.56,-5.47
2022-12-06 15:33:32.7110,0.292,-1.066,0.128,-8.06,2.18,-0.2,0.24,1.71,-5.79
2022-12-06 15:33:32.7220,0.326,-1.102,0.126,-7.88,2.12,-0.26,0.29,1.85,-6.05
2022-12-06 15:33:32.7320,0.36,-1.143,0.118,-7.71,2.23,-0.28,0.32,1.97,-6.26
2022-12-06 15:33:32.7420,0.387,-1.18,0.108,-7.49,2.37,-0.25,0.31,2.05,-6.43
2022-12-06 15:33:32.7510,0.399,-1.209,0.095,-7.12,2.46,-0.18,0.27,2.1,-6.57
2022-12-06 15:33:32.7620,0.396,-1.243,0.073,-6.57,2.57,-0.08,0.22,2.1,-6.69
2022-12-06 15:33:32.7720,0.401,-1.282,0.055,-5.91,2.75,0.14,0.14,2.07,-6.78
2022-12-06 15:33:32.7820,0.434,-1.325,0.055,-5.42,3.07,0.19,0.03,2.03,-6.81
2022-12-06 15:33:32.7920,0.484,-1.353,0.035,-5.19,3.33,0.22,-0.06,2.03,-6.78
2022-12-06 15:33:32.8020,0.513,-1.407,0.003,-4.97,3.66,0.47,-0.13,2.05,-6.74
2022-12-06 15:33:32.8120,0.525,-1.481,-0.029,-4.56,4.26,0.77,-0.18,2.09,-6.7
2022-12-06 15:33:32.8220,0.535,-1.551,-0.062,-3.96,5.12,1.09,-0.22,2.13,-6.65
2022-12-06 15:33:32.8320,0.56,-1.591,-0.08,-3.54,5.74,1.37,-0.25,2.14,-6.6
2022-12-06 15:33:32.8420,0.539,-1.666,-0.106,-3.04,6.37,1.58,-0.29,2.09,-6.58
2022-12-06 15:33:32.8520,0.515,-1.715,-0.117,-2.11,7.3,1.84,-0.33,2.0,-6.54
2022-12-06 15:33:32.8620,0.545,-1.715,-0.119,-1.48,7.76,1.93,-0.38,1.9,-6.44
2022-12-06 15:33:32.8720,0.59,-1.736,-0.129,-1.35,8.02,1.98,-0.41,1.81,-6.28
2022-12-06 15:33:32.8820,0.602,-1.767,-0.155,-1.18,8.6,2.2,-0.41,1.74,-6.13
2022-12-06 15:33:32.8920,0.546,-1.789,-0.173,-0.57,9.17,2.5,-0.4,1.68,-6.01
2022-12-06 15:33:32.9020,0.453,-1.766,-0.171,0.66,9.59,2.68,-0.4,1.59,-5.9
2022-12-06 15:33:32.9120,0.413,-1.733,-0.165,1.93,9.57,2.64,-0.4,1.51,-5.76
2022-12-06 15:33:32.9220,0.414,-1.742,-0.188,2.46,9.75,2.77,-0.39,1.41,-5.56
2022-12-06 15:33:32.9320,0.401,-1.73,-0.186,2.9,10.26,3.04,-0.43,1.27,-5.3
2022-12-06 15:33:32.9420,0.421,-1.683,-0.17,3.28,10.26,2.94,-0.49,1.13,-4.94
2022-12-06 15:33:32.9520,0.465,-1.64,-0.163,3.23,10.23,2.92,-0.61,1.0,-4.5
2022-12-06 15:33:32.9620,0.479,-1.586,-0.139,3.13,10.02,2.78,-0.74,0.89,-4.02
2022-12-06 15:33:32.9720,0.469,-1.566,-0.117,3.3,9.91,2.6,-0.9,0.84,-3.55
2022-12-06 15:33:32.9820,0.44,-1.558,-0.083,3.65,10.05,2.35,-1.08,0.86,-3.12
2022-12-06 15:33:32.9920,0.407,-1.535,-0.05,4.1,10.16,2.01,-1.24,0.99,-2.74
2022-12-06 15:33:33.0020,0.369,-1.526,-0.044,4.56,10.16,1.8,-1.36,1.19,-2.43
2022-12-06 15:33:33.0120,0.339,-1.512,-0.051,5.01,10.28,1.85,-1.45,1.43,-2.16
2022-12-06 15:33:33.0230,0.309,-1.491,-0.071,5.36,10.24,2.01,-1.5,1.66,-1.92
2022-12-06 15:33:33.0320,0.281,-1.46,-0.1,5.72,10.16,2.34,-1.51,1.82,-1.69
2022-12-06 15:33:33.0430,0.257,-1.428,-0.14,6.01,9.93,2.75,-1.49,1.88,-1.45
2022-12-06 15:33:33.0530,0.25,-1.414,-0.187,6.24,9.77,3.29,-1.43,1.83,-1.19
2022-12-06 15:33:33.0630,0.26,-1.413,-0.218,6.24,9.75,3.81,-1.38,1.67,-0.91
2022-12-06 15:33:33.0730,0.274,-1.431,-0.24,6.12,9.87,4.14,-1.32,1.43,-0.63
2022-12-06 15:33:33.0820,0.268,-1.44,-0.26,6.02,10.05,4.42,-1.32,1.43,-0.63
2022-12-06 15:33:33.0930,0.24,-1.455,-0.28,6.17,10.14,4.65,-1.13,0.94,-0.16
2022-12-06 15:33:33.1030,0.218,-1.473,-0.302,6.44,10.31,4.9,-0.97,0.7,0.01
2022-12-06 15:33:33.1130,0.2,-1.488,-0.326,6.61,10.43,5.12,-0.77,0.47,0.17
2022-12-06 15:33:33.1230,0.19,-1.506,-0.351,6.75,10.57,5.37,-0.53,0.2,0.32
2022-12-06 15:33:33.1330,0.183,-1.499,-0.368,6.8,10.66,5.6,-0.27,-0.11,0.49
2022-12-06 15:33:33.1430,0.18,-1.45,-0.371,6.85,10.36,5.67,0.0,-0.44,0.72
2022-12-06 15:33:33.1530,0.201,-1.386,-0.363,6.79,9.74,5.62,0.26,-0.78,1.01
2022-12-06 15:33:33.1630,0.227,-1.318,-0.342,6.49,9.0,5.43,0.5,-1.1,1.35
2022-12-06 15:33:33.1730,0.244,-1.254,-0.312,6.24,8.2,5.09,0.72,-1.4,1.73
2022-12-06 15:33:33.1830,0.274,-1.214,-0.283,5.98,7.51,4.71,0.93,-1.65,2.11
2022-12-06 15:33:33.1930,0.308,-1.197,-0.259,5.58,7.04,4.36,1.13,-1.85,2.48
2022-12-06 15:33:33.2030,0.352,-1.208,-0.232,5.13,6.74,4.0,1.33,-2.0,2.84
2022-12-06 15:33:33.2130,0.411,-1.252,-0.214,4.52,6.78,3.67,1.33,-2.0,2.84
2022-12-06 15:33:33.2230,0.474,-1.295,-0.189,3.76,6.98,3.39,1.68,-2.18,3.49
2022-12-06 15:33:33.2330,0.535,-1.345,-0.181,2.98,7.15,3.09,1.85,-2.2,3.79
2022-12-06 15:33:33.2430,0.578,-1.388,-0.175,2.22,7.37,3.01,2.0,-2.19,4.07
2022-12-06 15:33:33.2530,0.606,-1.419,-0.166,1.66,7.44,2.87,2.13,-2.16,4.35
2022-12-06 15:33:33.2630,0.642,-1.455,-0.173,1.1,7.45,2.82,2.25,-2.12,4.62
2022-12-06 15:33:33.2730,0.694,-1.501,-0.176,0.42,7.54,2.9,2.33,-2.08,4.92
2022-12-06 15:33:33.2830,0.755,-1.533,-0.181,-0.53,7.67,2.96,2.37,-2.04,5.22
2022-12-06 15:33:33.2930,0.764,-1.529,-0.172,-1.33,7.52,3.01,2.34,-2.01,5.48
2022-12-06 15:33:33.3030,0.755,-1.537,-0.153,-1.68,7.19,2.94,2.24,-2.01,5.7
2022-12-06 15:33:33.3130,0.752,-1.548,-0.126,-2.06,7.01,2.79,2.05,-2.0,5.9
2022-12-06 15:33:33.3240,0.747,-1.541,-0.098,-2.49,6.78,2.55,1.82,-1.97,6.07
2022-12-06 15:33:33.3330,0.756,-1.547,-0.087,-2.97,6.45,2.4,1.57,-1.92,6.24
2022-12-06 15:33:33.3440,0.775,-1.583,-0.067,-3.65,6.38,2.35,1.29,-1.84,6.38
2022-12-06 15:33:33.3540,0.784,-1.624,-0.043,-4.36,6.57,2.14,0.98,-1.75,6.5
2022-12-06 15:33:33.3640,0.784,-1.682,-0.033,-4.97,6.82,1.99,0.69,-1.61,6.57
2022-12-06 15:33:33.3740,0.774,-1.749,-0.034,-5.55,7.33,1.94,0.42,-1.42,6.59
2022-12-06 15:33:33.3840,0.737,-1.775,-0.018,-5.96,7.75,1.95,0.12,-1.22,6.56
2022-12-06 15:33:33.3940,0.71,-1.767,0.018,-6.19,7.78,1.66,-0.2,-0.99,6.5
2022-12-06 15:33:33.4040,0.692,-1.729,0.045,-6.6,7.55,1.3,-0.51,-0.73,6.44
2022-12-06 15:33:33.4140,0.681,-1.673,0.059,-7.04,7.07,1.0,-0.79,-0.45,6.39
2022-12-06 15:33:33.4240,0.673,-1.616,0.047,-7.6,6.56,0.87,-1.01,-0.18,6.33
2022-12-06 15:33:33.4340,0.629,-1.534,0.024,-8.01,5.98,0.95,-1.17,0.03,6.24
2022-12-06 15:33:33.4440,0.572,-1.463,-0.009,-8.08,5.25,1.1,-1.25,0.16,6.12
2022-12-06 15:33:33.4540,0.535,-1.414,-0.039,-8.16,4.79,1.29,-1.27,0.17,5.99
2022-12-06 15:33:33.4640,0.504,-1.376,-0.069,-8.4,4.51,1.46,-1.24,0.05,5.84
2022-12-06 15:33:33.4740,0.487,-1.362,-0.085,-8.64,4.4,1.62,-1.16,-0.14,5.69
2022-12-06 15:33:33.4840,0.494,-1.366,-0.096,-9.07,4.58,1.63,-1.02,-0.37,5.54
2022-12-06 15:33:33.4940,0.503,-1.339,-0.114,-9.65,4.81,1.7,-0.82,-0.57,5.4
2022-12-06 15:33:33.5040,0.486,-1.262,-0.13,-10.13,4.62,1.87,-0.57,-0.71,5.24
2022-12-06 15:33:33.5140,0.434,-1.15,-0.119,-10.23,3.97,1.94,-0.34,-0.8,5.06
2022-12-06 15:33:33.5240,0.391,-1.056,-0.095,-10.09,3.16,1.78,-0.13,-0.85,4.87
2022-12-06 15:33:33.5340,0.385,-0.998,-0.066,-10.14,2.7,1.6,0.02,-0.87,4.68
2022-12-06 15:33:33.5440,0.413,-0.962,-0.021,-10.56,2.5,1.29,0.1,-0.91,4.52
2022-12-06 15:33:33.5540,0.446,-0.941,0.023,-11.19,2.54,0.92,0.13,-0.96,4.37
2022-12-06 15:33:33.5640,0.472,-0.914,0.055,-11.78,2.64,0.6,0.13,-1.03,4.2
2022-12-06 15:33:33.5740,0.461,-0.863,0.072,-12.18,2.61,0.42,0.14,-1.13,3.99
2022-12-06 15:33:33.5840,0.441,-0.8,0.069,-12.19,2.33,0.44,0.17,-1.24,3.74
2022-12-06 15:33:33.5940,0.422,-0.738,0.069,-12.25,2.03,0.59,0.21,-1.32,3.44
2022-12-06 15:33:33.6040,0.371,-0.666,0.087,-12.08,1.62,0.65,0.23,-1.36,3.07
2022-12-06 15:33:33.6140,0.332,-0.635,0.115,-11.72,1.26,0.57,0.22,-1.35,2.64
2022-12-06 15:33:33.6250,0.321,-0.654,0.159,-11.54,1.37,0.33,0.22,-1.35,2.64
2022-12-06 15:33:33.6350,0.33,-0.671,0.184,-11.59,1.8,0.05,0.11,-1.12,1.7
2022-12-06 15:33:33.6450,0.349,-0.646,0.179,-11.79,1.94,0.02,0.07,-0.89,1.23
2022-12-06 15:33:33.6550,0.353,-0.621,0.172,-11.98,1.7,0.17,0.04,-0.6,0.75
2022-12-06 15:33:33.6650,0.33,-0.627,0.161,-11.94,1.65,0.28,0.01,-0.29,0.23
2022-12-06 15:33:33.6750,0.297,-0.619,0.143,-11.63,1.7,0.42,0.01,-0.29,0.23
2022-12-06 15:33:33.6850,0.279,-0.612,0.12,-11.34,1.51,0.62,-0.07,0.32,-0.86
2022-12-06 15:33:33.6950,0.269,-0.658,0.095,-11.17,1.54,0.8,-0.14,0.55,-1.42
2022-12-06 15:33:33.7050,0.272,-0.7,0.066,-11.0,1.91,1.0,-0.21,0.68,-1.92
2022-12-06 15:33:33.7150,0.345,-0.722,0.028,-11.17,2.05,1.26,-0.29,0.73,-2.32
2022-12-06 15:33:33.7250,0.449,-0.75,0.02,-11.98,2.04,1.51,-0.44,0.69,-2.61
2022-12-06 15:33:33.7350,0.523,-0.818,0.069,-12.8,2.2,1.27,-0.68,0.54,-2.87
2022-12-06 15:33:33.7450,0.536,-0.902,0.113,-13.18,2.74,0.65,-0.94,0.34,-3.18
2022-12-06 15:33:33.7550,0.463,-0.989,0.121,-12.8,3.28,0.28,-1.17,0.19,-3.6
2022-12-06 15:33:33.7650,0.359,-1.067,0.119,-11.66,3.84,0.18,-1.35,0.16,-4.13
2022-12-06 15:33:33.7750,0.262,-1.094,0.102,-10.39,4.09,0.11,-1.41,0.29,-4.74
2022-12-06 15:33:33.7850,0.174,-1.138,0.06,-9.1,3.94,0.27,-1.36,0.56,-5.38
2022-12-06 15:33:33.7950,0.158,-1.212,0.011,-8.05,4.16,0.58,-1.15,0.95,-5.95
2022-12-06 15:33:33.8050,0.2,-1.258,-0.042,-7.74,4.43,0.95,-0.83,1.43,-6.43
2022-12-06 15:33:33.8150,0.225,-1.268,-0.068,-7.62,4.34,1.24,-0.44,1.9,-6.84
2022-12-06 15:33:33.8250,0.271,-1.283,-0.066,-7.31,4.02,1.26,-0.05,2.31,-7.16
2022-12-06 15:33:33.8360,0.331,-1.337,-0.043,-7.26,3.96,1.04,0.29,2.6,-7.42
2022-12-06 15:33:33.8450,0.366,-1.414,0.006,-7.1,4.32,0.66,0.53,2.72,-7.62
2022-12-06 15:33:33.8550,0.421,-1.449,0.061,-6.75,4.73,0.06,0.65,2.73,-7.71
2022-12-06 15:33:33.8650,0.513,-1.463,0.069,-6.72,4.71,-0.39,0.71,2.65,-7.66
2022-12-06 15:33:33.8750,0.625,-1.496,0.004,-7.0,4.79,-0.1,0.76,2.61,-7.47
2022-12-06 15:33:33.8860,0.711,-1.5,-0.034,-7.36,4.96,0.53,0.76,2.6,-7.18
2022-12-06 15:33:33.8950,0.742,-1.5,-0.074,-7.31,4.89,0.92,0.74,2.6,-6.86
2022-12-06 15:33:33.9050,0.746,-1.585,-0.137,-6.84,5.09,1.46,0.69,2.57,-6.59
2022-12-06 15:33:33.9160,0.708,-1.715,-0.205,-6.14,6.36,2.25,0.61,2.45,-6.42
2022-12-06 15:33:33.9260,0.641,-1.733,-0.222,-4.98,7.37,2.82,0.44,2.22,-6.32
2022-12-06 15:33:33.9360,0.609,-1.745,-0.245,-3.8,7.48,3.02,0.23,1.94,-6.26
2022-12-06 15:33:33.9450,0.625,-1.769,-0.256,-3.14,7.89,3.32,-0.0,1.66,-6.22
2022-12-06 15:33:33.9560,0.627,-1.764,-0.25,-2.73,8.19,3.38,-0.24,1.39,-6.2
2022-12-06 15:33:33.9660,0.613,-1.792,-0.237,-2.13,8.44,3.31,-0.46,1.16,-6.2
2022-12-06 15:33:33.9760,0.594,-1.819,-0.221,-1.41,9.05,3.15,-0.64,1.01,-6.21
2022-12-06 15:33:33.9860,0.589,-1.822,-0.213,-0.75,9.51,3.03,-0.76,0.95,-6.21
2022-12-06 15:33:33.9960,0.576,-1.806,-0.199,-0.19,9.8,2.92,-0.84,0.93,-6.19
2022-12-06 15:33:34.0060,0.553,-1.765,-0.18,0.46,9.9,2.74,-0.84,0.93,-6.19
2022-12-06 15:33:34.0160,0.539,-1.712,-0.164,1.12,9.81,2.55,-0.91,0.92,-5.97
2022-12-06 15:33:34.0260,0.539,-1.666,-0.152,1.62,9.66,2.39,-0.93,0.89,-5.76
