time,gFx,gFy,gFz,ax,ay,az,wx,wy,wz
2022-12-06 15:33:17.3210,-0.516,-0.806,-0.292,-0.2,-0.05,-0.02,-0.01,-0.06,0.07
2022-12-06 15:33:17.3350,-0.522,-0.816,-0.3,0.03,0.07,-0.05,0.01,-0.02,0.06
2022-12-06 15:33:17.3410,-0.532,-0.825,-0.302,0.09,0.15,0.01,0.03,0.02,0.03
2022-12-06 15:33:17.3510,-0.542,-0.835,-0.303,0.2,0.26,0.04,0.04,0.06,-0.0
2022-12-06 15:33:17.3610,-0.542,-0.827,-0.295,0.28,0.29,0.01,0.05,0.11,-0.03
2022-12-06 15:33:17.3710,-0.538,-0.809,-0.286,0.26,0.14,-0.06,0.05,0.1,-0.04
2022-12-06 15:33:17.3810,-0.525,-0.805,-0.279,0.2,0.01,-0.17,0.04,0.06,-0.05
2022-12-06 15:33:17.3910,-0.508,-0.809,-0.274,0.05,0.0,-0.21,0.03,0.03,-0.05
2022-12-06 15:33:17.4010,-0.494,-0.816,-0.282,-0.1,0.06,-0.23,0.01,0.03,-0.05
2022-12-06 15:33:17.4110,-0.488,-0.808,-0.281,-0.21,0.09,-0.15,0.0,0.01,-0.02
2022-12-06 15:33:17.4210,-0.489,-0.793,-0.268,-0.24,-0.04,-0.23,-0.02,-0.02,0.02
2022-12-06 15:33:17.4310,-0.5,-0.786,-0.268,-0.2,-0.17,-0.33,-0.04,-0.05,0.05
2022-12-06 15:33:17.4410,-0.508,-0.781,-0.276,-0.09,-0.21,-0.26,-0.06,-0.09,0.08
2022-12-06 15:33:17.4510,-0.505,-0.779,-0.273,-0.06,-0.25,-0.22,-0.08,-0.15,0.09
2022-12-06 15:33:17.4610,-0.496,-0.792,-0.276,-0.13,-0.22,-0.27,-0.1,-0.21,0.1
2022-12-06 15:33:17.4710,-0.497,-0.807,-0.298,-0.22,-0.05,-0.13,-0.1,-0.2,0.1
2022-12-06 15:33:17.4810,-0.511,-0.804,-0.316,-0.17,0.05,0.08,-0.1,-0.15,0.12
2022-12-06 15:33:17.4910,-0.537,-0.802,-0.325,0.01,0.0,0.23,-0.08,-0.09,0.13
2022-12-06 15:33:17.5010,-0.555,-0.804,-0.329,0.25,0.02,0.28,-0.07,-0.03,0.12
2022-12-06 15:33:17.5110,-0.558,-0.8,-0.329,0.36,0.03,0.31,-0.05,0.01,0.09
2022-12-06 15:33:17.5210,-0.547,-0.789,-0.333,0.32,-0.04,0.31,-0.04,0.05,0.08
2022-12-06 15:33:17.5310,-0.532,-0.789,-0.345,0.19,-0.12,0.37,-0.01,0.11,0.07
2022-12-06 15:33:17.5410,-0.533,-0.791,-0.347,0.07,-0.1,0.49,0.02,0.15,0.06
2022-12-06 15:33:17.5510,-0.532,-0.795,-0.319,0.13,-0.06,0.39,0.03,0.13,0.06
2022-12-06 15:33:17.5610,-0.515,-0.772,-0.288,0.05,-0.11,0.04,-0.0,0.16,0.09
2022-12-06 15:33:17.5710,-0.504,-0.773,-0.315,-0.15,-0.31,-0.06,0.0,0.14,0.12
2022-12-06 15:33:17.5810,-0.535,-0.815,-0.307,-0.1,-0.13,0.17,0.02,0.04,0.12
2022-12-06 15:33:17.5910,-0.538,-0.851,-0.285,0.18,0.35,-0.07,0.0,-0.05,0.08
2022-12-06 15:33:17.6010,-0.532,-0.842,-0.283,0.08,0.54,-0.17,-0.01,-0.07,0.02
2022-12-06 15:33:17.6110,-0.534,-0.818,-0.289,0.08,0.36,-0.18,-0.03,-0.08,0.01
2022-12-06 15:33:17.6210,-0.538,-0.797,-0.305,0.09,0.13,-0.06,-0.03,-0.09,0.02
2022-12-06 15:33:17.6310,-0.551,-0.788,-0.324,0.17,-0.05,0.08,-0.02,-0.03,0.01
2022-12-06 15:33:17.6410,-0.561,-0.797,-0.344,0.29,-0.07,0.32,0.01,0.0,-0.03
2022-12-06 15:33:17.6510,-0.564,-0.83,-0.352,0.37,0.11,0.42,0.07,0.06,-0.07
2022-12-06 15:33:17.6610,-0.56,-0.894,-0.349,0.35,0.51,0.59,0.14,0.31,-0.01
2022-12-06 15:33:17.6710,-0.618,-0.857,-0.298,0.54,1.01,0.18,0.13,0.3,-0.11
2022-12-06 15:33:17.6810,-0.6,-0.775,-0.32,0.99,0.21,0.03,0.12,0.39,-0.19
2022-12-06 15:33:17.6910,-0.602,-0.705,-0.323,0.69,-0.47,0.15,0.14,0.69,-0.26
2022-12-06 15:33:17.7010,-0.605,-0.712,-0.364,1.04,-1.15,0.27,0.15,0.73,-0.29
2022-12-06 15:33:17.7110,-0.52,-0.794,-0.386,0.62,-0.53,0.73,0.21,0.83,-0.23
2022-12-06 15:33:17.7210,-0.481,-0.803,-0.323,-0.06,-0.03,0.53,0.19,1.01,-0.18
2022-12-06 15:33:17.7310,-0.473,-0.825,-0.316,-0.21,-0.02,-0.05,0.16,1.08,-0.15
2022-12-06 15:33:17.7410,-0.431,-0.85,-0.33,-0.34,0.31,0.06,0.14,1.04,-0.06
2022-12-06 15:33:17.7510,-0.399,-0.826,-0.3,-0.76,0.33,-0.03,0.12,0.97,0.09
2022-12-06 15:33:17.7610,-0.465,-0.815,-0.29,-0.8,0.1,-0.33,0.13,0.9,0.16
2022-12-06 15:33:17.7710,-0.545,-0.801,-0.268,0.21,0.05,-0.43,0.1,0.45,0.07
2022-12-06 15:33:17.7810,-0.467,-0.799,-0.238,0.41,-0.14,-0.73,0.11,0.11,0.03
2022-12-06 15:33:17.7910,-0.388,-0.812,-0.195,-0.58,-0.04,-1.07,0.02,-0.07,0.11
2022-12-06 15:33:17.8010,-0.412,-0.796,-0.201,-1.01,0.01,-1.39,-0.08,-0.08,0.16
2022-12-06 15:33:17.8110,-0.455,-0.815,-0.257,-0.57,-0.14,-1.1,-0.14,0.05,0.25
2022-12-06 15:33:17.8210,-0.543,-0.818,-0.307,-0.16,0.24,-0.53,-0.19,0.2,0.32
2022-12-06 15:33:17.8310,-0.66,-0.682,-0.338,1.0,-0.25,-0.17,-0.24,0.28,0.15
2022-12-06 15:33:17.8410,-0.582,-0.61,-0.379,1.61,-1.63,0.15,-0.22,0.13,0.02
2022-12-06 15:33:17.8510,-0.413,-0.633,-0.387,0.21,-1.84,0.47,-0.18,-0.09,-0.01
2022-12-06 15:33:17.8610,-0.293,-0.681,-0.362,-1.3,-1.49,0.37,-0.16,-0.24,0.06
2022-12-06 15:33:17.8710,-0.274,-0.731,-0.355,-2.22,-0.98,0.14,-0.14,-0.28,0.19
2022-12-06 15:33:17.8810,-0.353,-0.782,-0.364,-1.93,-0.47,0.18,-0.12,-0.34,0.31
2022-12-06 15:33:17.8910,-0.454,-0.832,-0.36,-1.15,0.04,0.22,-0.1,-0.48,0.35
2022-12-06 15:33:17.9010,-0.569,-0.882,-0.364,-0.04,0.54,0.24,-0.06,-0.49,0.26
2022-12-06 15:33:17.9110,-0.609,-0.926,-0.331,0.82,1.05,0.22,-0.04,-0.52,0.19
2022-12-06 15:33:17.9210,-0.612,-0.94,-0.27,0.96,1.42,-0.24,-0.07,-0.64,0.16
2022-12-06 15:33:17.9310,-0.621,-0.865,-0.233,0.96,1.3,-0.79,-0.16,-0.74,0.04
2022-12-06 15:33:17.9410,-0.592,-0.78,-0.267,1.0,0.32,-0.89,-0.2,-0.68,-0.1
2022-12-06 15:33:17.9510,-0.495,-0.789,-0.317,0.37,-0.15,-0.36,-0.21,-0.68,-0.05
2022-12-06 15:33:17.9610,-0.463,-0.817,-0.328,-0.52,0.13,0.02,-0.2,-0.67,0.08
2022-12-06 15:33:17.9710,-0.507,-0.812,-0.333,-0.48,0.28,0.05,-0.19,-0.61,0.14
2022-12-06 15:33:17.9810,-0.558,-0.804,-0.344,-0.03,0.21,0.17,-0.16,-0.48,0.13
2022-12-06 15:33:17.9910,-0.622,-0.786,-0.354,0.51,0.13,0.25,-0.15,-0.32,0.07
2022-12-06 15:33:18.0010,-0.649,-0.766,-0.373,1.08,-0.08,0.42,-0.11,-0.14,-0.03
2022-12-06 15:33:18.0110,-0.607,-0.766,-0.344,1.05,-0.21,0.5,-0.08,-0.06,-0.09
2022-12-06 15:33:18.0210,-0.531,-0.783,-0.292,0.5,-0.15,0.03,-0.09,-0.13,-0.04
2022-12-06 15:33:18.0310,-0.463,-0.786,-0.261,-0.29,0.02,-0.41,-0.11,-0.28,0.07
2022-12-06 15:33:18.0410,-0.453,-0.753,-0.276,-0.81,-0.07,-0.57,-0.13,-0.33,0.1
2022-12-06 15:33:18.0510,-0.482,-0.725,-0.329,-0.67,-0.47,-0.26,-0.13,-0.31,0.08
2022-12-06 15:33:18.0610,-0.482,-0.778,-0.378,-0.52,-0.45,0.34,-0.1,-0.23,0.13
2022-12-06 15:33:18.0710,-0.534,-0.84,-0.387,-0.46,0.18,0.64,-0.08,-0.08,0.11
2022-12-06 15:33:18.0810,-0.603,-0.852,-0.403,0.31,0.79,0.79,-0.04,0.17,-0.02
2022-12-06 15:33:18.0910,-0.587,-0.773,-0.35,0.59,0.41,0.64,-0.04,0.23,0.03
2022-12-06 15:33:18.1010,-0.615,-0.752,-0.335,0.57,-0.24,0.19,-0.03,0.31,0.02
2022-12-06 15:33:18.1110,-0.584,-0.772,-0.316,0.75,-0.24,0.08,-0.04,0.28,0.03
2022-12-06 15:33:18.1210,-0.529,-0.792,-0.295,0.24,0.01,-0.17,-0.05,0.19,0.09
2022-12-06 15:33:18.1310,-0.501,-0.808,-0.307,-0.19,0.15,-0.32,-0.06,0.18,0.13
2022-12-06 15:33:18.1410,-0.452,-0.872,-0.338,-0.57,0.56,-0.02,-0.03,0.25,0.27
2022-12-06 15:33:18.1510,-0.598,-0.726,-0.305,-0.38,0.49,-0.07,-0.05,0.24,0.04
2022-12-06 15:33:18.1610,-0.54,-0.75,-0.337,0.65,-0.67,-0.12,-0.04,0.04,0.05
2022-12-06 15:33:18.1710,-0.486,-0.8,-0.32,-0.32,0.02,0.03,-0.04,-0.05,0.13
2022-12-06 15:33:18.1810,-0.506,-0.796,-0.352,-0.47,0.23,-0.06,-0.02,0.03,0.12
2022-12-06 15:33:18.1910,-0.557,-0.814,-0.399,-0.2,0.2,0.4,0.01,0.21,0.04
2022-12-06 15:33:18.2010,-0.756,-1.009,-0.482,0.84,0.99,0.84,0.05,0.91,-0.39
2022-12-06 15:33:18.2110,-0.576,-0.604,-0.385,2.04,1.56,1.57,0.1,0.72,-0.11
2022-12-06 15:33:18.2210,-0.464,-0.494,-0.199,-0.24,-3.03,-0.55,0.18,0.0,0.07
2022-12-06 15:33:18.2310,-0.449,-0.846,-0.229,-0.74,-1.5,-1.39,0.04,0.06,0.08
2022-12-06 15:33:18.2410,-0.473,-0.926,-0.339,-0.76,1.31,-0.69,-0.0,0.11,0.02
2022-12-06 15:33:18.2510,-0.5,-0.848,-0.409,-0.44,1.21,0.35,0.02,0.2,-0.04
2022-12-06 15:33:18.2610,-0.534,-0.771,-0.425,-0.19,0.37,0.77,0.06,0.32,-0.05
2022-12-06 15:33:18.2710,-0.545,-0.73,-0.401,0.19,-0.31,0.81,0.1,0.27,-0.02
2022-12-06 15:33:18.2810,-0.505,-0.764,-0.33,0.06,-0.43,0.35,0.09,0.13,0.02
2022-12-06 15:33:18.2910,-0.496,-0.794,-0.298,-0.3,0.0,-0.29,0.05,0.03,0.02
2022-12-06 15:33:18.3010,-0.494,-0.75,-0.292,-0.28,0.07,-0.45,0.03,-0.08,0.08
2022-12-06 15:33:18.3110,-0.553,-0.794,-0.331,-0.18,-0.37,-0.38,0.04,-0.13,0.02
2022-12-06 15:33:18.3210,-0.529,-0.867,-0.36,0.35,0.59,0.08,0.08,-0.14,0.05
2022-12-06 15:33:18.3310,-0.509,-0.803,-0.333,-0.22,0.64,0.19,0.1,-0.12,0.07
2022-12-06 15:33:18.3410,-0.529,-0.801,-0.318,-0.1,0.11,-0.16,0.1,-0.04,0.06
2022-12-06 15:33:18.3510,-0.587,-0.811,-0.351,0.11,0.28,-0.04,0.1,0.05,-0.07
2022-12-06 15:33:18.3610,-0.662,-0.833,-0.369,0.9,0.3,0.25,0.1,0.18,-0.39
2022-12-06 15:33:18.3710,-0.598,-0.98,-0.393,1.41,0.79,0.43,0.08,0.49,-0.72
2022-12-06 15:33:18.3810,-0.448,-1.019,-0.341,0.28,2.38,0.56,-0.01,0.39,-0.69
2022-12-06 15:33:18.3910,-0.245,-1.002,-0.133,-1.55,2.22,-0.77,-0.3,-0.28,0.61
2022-12-06 15:33:18.4010,-0.548,-0.557,-0.263,-2.06,0.92,-1.95,-0.13,-0.35,0.9
2022-12-06 15:33:18.4110,-0.709,-0.364,-0.314,1.31,-3.56,-0.27,-0.13,-0.23,0.3
2022-12-06 15:33:18.4210,-0.584,-0.482,-0.342,1.49,-3.78,-0.27,0.01,-0.23,-0.19
2022-12-06 15:33:18.4310,-0.427,-0.659,-0.343,-0.09,-2.34,0.25,0.0,-0.6,-0.21
2022-12-06 15:33:18.4410,-0.392,-0.858,-0.31,-1.26,-0.41,-0.14,-0.03,-0.63,0.03
2022-12-06 15:33:18.4510,-0.441,-0.915,-0.345,-1.27,1.13,-0.08,-0.07,-0.49,0.22
2022-12-06 15:33:18.4610,-0.57,-0.882,-0.38,-0.48,1.26,0.28,-0.09,-0.21,0.17
2022-12-06 15:33:18.4710,-0.66,-0.823,-0.434,0.77,0.79,0.71,-0.04,0.01,0.05
2022-12-06 15:33:18.4810,-0.681,-0.77,-0.43,1.37,0.23,1.1,0.01,0.15,-0.02
2022-12-06 15:33:18.4910,-0.646,-0.732,-0.396,1.37,-0.25,0.86,0.04,0.21,-0.04
2022-12-06 15:33:18.5010,-0.572,-0.716,-0.373,0.86,-0.56,0.55,0.07,0.2,-0.03
2022-12-06 15:33:18.5110,-0.476,-0.722,-0.358,0.05,-0.64,0.36,0.09,0.17,-0.04
2022-12-06 15:33:18.5210,-0.377,-0.752,-0.331,-0.93,-0.5,0.2,0.11,0.06,-0.04
2022-12-06 15:33:18.5310,-0.321,-0.802,-0.293,-1.81,-0.1,-0.12,0.1,-0.12,0.05
2022-12-06 15:33:18.5410,-0.368,-0.828,-0.273,-2.03,0.35,-0.45,0.06,-0.28,0.21
2022-12-06 15:33:18.5510,-0.483,-0.821,-0.285,-1.25,0.47,-0.51,0.01,-0.38,0.29
2022-12-06 15:33:18.5610,-0.581,-0.815,-0.321,-0.14,0.37,-0.25,-0.01,-0.4,0.29
2022-12-06 15:33:18.5710,-0.637,-0.82,-0.34,0.62,0.39,0.1,0.02,-0.33,0.24
2022-12-06 15:33:18.5810,-0.666,-0.812,-0.327,1.04,0.42,0.18,0.04,-0.24,0.17
2022-12-06 15:33:18.5910,-0.661,-0.789,-0.301,1.2,0.29,0.0,0.04,-0.25,0.11
2022-12-06 15:33:18.6010,-0.605,-0.764,-0.273,0.95,0.04,-0.26,0.0,-0.33,0.06
2022-12-06 15:33:18.6110,-0.525,-0.749,-0.266,0.24,-0.18,-0.47,-0.05,-0.39,0.07
2022-12-06 15:33:18.6210,-0.477,-0.746,-0.29,-0.5,-0.27,-0.4,-0.07,-0.35,0.12
2022-12-06 15:33:18.6310,-0.491,-0.747,-0.32,-0.78,-0.25,-0.09,-0.05,-0.24,0.16
2022-12-06 15:33:18.6410,-0.59,-0.694,-0.317,-0.42,-0.33,0.14,-0.03,-0.0,0.18
2022-12-06 15:33:18.6510,-0.767,-0.632,-0.326,1.07,-1.09,0.01,0.01,0.0,0.11
2022-12-06 15:33:18.6610,-0.661,-0.723,-0.381,2.01,-1.26,0.38,0.08,-0.26,0.14
2022-12-06 15:33:18.6710,-0.536,-0.918,-0.323,0.43,0.46,0.7,0.07,-0.29,-0.11
2022-12-06 15:33:18.6810,-0.447,-0.868,-0.271,-0.61,1.34,-0.24,-0.04,0.06,-0.13
2022-12-06 15:33:18.6910,-0.418,-0.773,-0.341,-1.3,0.66,-0.13,-0.03,0.13,0.12
2022-12-06 15:33:18.7010,-0.52,-0.71,-0.353,-1.13,-0.39,0.49,0.06,0.03,0.22
2022-12-06 15:33:18.7110,-0.561,-0.785,-0.293,-0.06,-0.38,0.27,0.09,-0.04,0.16
2022-12-06 15:33:18.7210,-0.515,-0.81,-0.252,-0.16,0.35,-0.36,0.04,-0.09,0.1
2022-12-06 15:33:18.7310,-0.503,-0.8,-0.291,-0.57,0.36,-0.45,0.02,-0.14,0.13
2022-12-06 15:33:18.7410,-0.519,-0.79,-0.323,-0.55,0.28,0.04,0.03,-0.18,0.17
2022-12-06 15:33:18.7510,-0.546,-0.77,-0.333,-0.37,0.16,0.23,0.05,-0.16,0.18
2022-12-06 15:33:18.7610,-0.569,-0.751,-0.342,-0.11,-0.04,0.35,0.08,-0.13,0.17
2022-12-06 15:33:18.7710,-0.569,-0.748,-0.34,0.03,-0.19,0.41,0.1,-0.16,0.15
2022-12-06 15:33:18.7810,-0.541,-0.761,-0.331,-0.1,-0.14,0.39,0.12,-0.24,0.13
2022-12-06 15:33:18.7910,-0.504,-0.778,-0.314,-0.45,0.01,0.27,0.12,-0.33,0.13
2022-12-06 15:33:18.8010,-0.48,-0.793,-0.303,-0.8,0.19,0.15,0.11,-0.42,0.15
2022-12-06 15:33:18.8110,-0.471,-0.796,-0.301,-1.01,0.31,0.11,0.09,-0.49,0.17
2022-12-06 15:33:18.8210,-0.486,-0.79,-0.307,-1.04,0.3,0.15,0.09,-0.52,0.2
2022-12-06 15:33:18.8310,-0.52,-0.782,-0.321,-0.83,0.23,0.29,0.1,-0.52,0.21
2022-12-06 15:33:18.8410,-0.55,-0.775,-0.328,-0.51,0.17,0.45,0.13,-0.52,0.19
2022-12-06 15:33:18.8510,-0.559,-0.765,-0.328,-0.33,0.09,0.53,0.15,-0.53,0.18
2022-12-06 15:33:18.8610,-0.559,-0.761,-0.326,-0.31,0.02,0.56,0.18,-0.54,0.18
2022-12-06 15:33:18.8710,-0.545,-0.756,-0.326,-0.37,-0.02,0.59,0.21,-0.56,0.17
2022-12-06 15:33:18.8810,-0.525,-0.764,-0.325,-0.58,-0.02,0.64,0.24,-0.6,0.17
2022-12-06 15:33:18.8910,-0.511,-0.773,-0.319,-0.8,0.08,0.67,0.25,-0.64,0.18
2022-12-06 15:33:18.9010,-0.506,-0.776,-0.315,-0.92,0.16,0.66,0.27,-0.68,0.17
2022-12-06 15:33:18.9110,-0.507,-0.781,-0.315,-0.98,0.18,0.71,0.28,-0.71,0.16
2022-12-06 15:33:18.9210,-0.516,-0.784,-0.311,-0.96,0.24,0.76,0.31,-0.73,0.14
2022-12-06 15:33:18.9310,-0.534,-0.779,-0.306,-0.88,0.23,0.78,0.34,-0.71,0.11
2022-12-06 15:33:18.9410,-0.552,-0.778,-0.308,-0.69,0.19,0.82,0.38,-0.67,0.07
2022-12-06 15:33:18.9510,-0.563,-0.779,-0.307,-0.58,0.18,0.92,0.45,-0.61,0.03
2022-12-06 15:33:18.9610,-0.581,-0.778,-0.288,-0.47,0.19,0.92,0.51,-0.55,-0.02
2022-12-06 15:33:18.9720,-0.602,-0.764,-0.255,-0.27,0.12,0.74,0.54,-0.56,-0.03
2022-12-06 15:33:18.9810,-0.609,-0.746,-0.225,-0.12,-0.06,0.48,0.55,-0.64,-0.02
2022-12-06 15:33:18.9910,-0.601,-0.734,-0.228,-0.11,-0.23,0.36,0.56,-0.73,-0.01
2022-12-06 15:33:19.0010,-0.57,-0.721,-0.25,-0.29,-0.36,0.59,0.59,-0.8,-0.01
2022-12-06 15:33:19.0110,-0.533,-0.722,-0.269,-0.65,-0.47,0.91,0.65,-0.85,0.0
2022-12-06 15:33:19.0210,-0.51,-0.735,-0.265,-1.0,-0.41,1.12,0.71,-0.92,0.02
2022-12-06 15:33:19.0310,-0.502,-0.751,-0.25,-1.17,-0.26,1.13,0.75,-1.01,0.04
2022-12-06 15:33:19.0410,-0.499,-0.762,-0.239,-1.23,-0.14,1.11,0.8,-1.12,0.02
2022-12-06 15:33:19.0510,-0.471,-0.775,-0.243,-1.32,-0.04,1.19,0.88,-1.21,-0.04
2022-12-06 15:33:19.0610,-0.412,-0.778,-0.229,-1.73,0.07,1.37,1.04,-1.25,-0.15
2022-12-06 15:33:19.0710,-0.324,-0.796,-0.166,-2.43,0.03,1.16,1.1,-1.54,-0.26
2022-12-06 15:33:19.0810,-0.235,-0.846,-0.168,-3.31,0.4,0.88,1.2,-1.83,-0.29
2022-12-06 15:33:19.0910,-0.166,-0.82,-0.177,-4.63,0.1,1.12,1.5,-1.76,-0.31
2022-12-06 15:33:19.1010,-0.154,-0.758,-0.047,-4.63,0.1,1.12,1.68,-1.83,-0.41
2022-12-06 15:33:19.1110,-0.148,-0.736,0.049,-4.54,-0.37,0.03,1.65,-2.3,-0.47
2022-12-06 15:33:19.1210,-0.129,-0.728,0.079,-4.72,-0.51,-0.37,1.62,-2.56,-0.36
2022-12-06 15:33:19.1310,-0.147,-0.688,0.142,-4.67,-0.74,-0.36,1.53,-2.64,-0.37
2022-12-06 15:33:19.1410,-0.143,-0.723,0.162,-4.54,-0.98,-0.75,1.46,-2.78,-0.3
2022-12-06 15:33:19.1510,-0.155,-0.809,0.145,-4.47,-0.39,-0.41,1.35,-2.99,-0.35
2022-12-06 15:33:19.1610,-0.089,-0.958,0.107,-4.4,0.64,0.15,1.29,-3.05,-0.83
2022-12-06 15:33:19.1710,0.073,-1.12,0.2,-5.43,2.26,0.46,1.18,-2.51,-1.45
2022-12-06 15:33:19.1810,0.13,-1.162,0.287,-6.68,3.43,-0.55,0.98,-1.94,-1.81
2022-12-06 15:33:19.1910,0.019,-1.062,0.247,-6.38,3.26,-0.65,0.89,-1.89,-2.01
2022-12-06 15:33:19.2010,-0.084,-0.893,0.282,-4.87,1.65,-0.18,0.9,-1.99,-2.23
2022-12-06 15:33:19.2110,-0.105,-0.926,0.35,-3.94,0.51,-0.63,0.87,-2.18,-2.47
2022-12-06 15:33:19.2210,-0.053,-0.994,0.362,-3.72,1.18,-0.96,0.73,-2.45,-2.81
2022-12-06 15:33:19.2310,0.103,-0.981,0.322,-4.29,1.44,-0.69,0.52,-2.72,-3.11
2022-12-06 15:33:19.2410,0.251,-0.943,0.255,-5.7,0.99,-0.01,0.33,-2.89,-3.14
2022-12-06 15:33:19.2510,0.193,-0.938,0.227,-6.16,0.61,0.74,0.19,-2.94,-3.09
2022-12-06 15:33:19.2610,-0.017,-0.945,0.248,-4.49,0.54,0.88,0.05,-2.95,-3.13
2022-12-06 15:33:19.2710,-0.182,-0.956,0.253,-2.0,0.52,0.77,-0.09,-2.94,-3.29
2022-12-06 15:33:19.2810,-0.21,-0.954,0.23,-0.49,0.52,0.91,-0.21,-2.92,-3.44
2022-12-06 15:33:19.2910,-0.157,-0.925,0.21,-0.22,0.3,1.22,-0.32,-2.88,-3.51
2022-12-06 15:33:19.3010,-0.112,-0.896,0.206,-0.37,-0.09,1.37,-0.44,-2.81,-3.52
2022-12-06 15:33:19.3110,-0.106,-0.868,0.202,-0.26,-0.42,1.38,-0.58,-2.76,-3.46
2022-12-06 15:33:19.3210,-0.126,-0.824,0.188,0.22,-0.79,1.44,-0.7,-2.73,-3.36
2022-12-06 15:33:19.3310,-0.133,-0.772,0.178,0.81,-1.34,1.53,-0.82,-2.7,-3.23
2022-12-06 15:33:19.3410,-0.115,-0.751,0.179,1.15,-1.81,1.51,-0.91,-2.62,-3.04
2022-12-06 15:33:19.3510,-0.112,-0.765,0.183,1.34,-1.89,1.4,-0.98,-2.56,-2.81
2022-12-06 15:33:19.3610,-0.119,-0.793,0.189,1.74,-1.71,1.26,-1.05,-2.57,-2.58
2022-12-06 15:33:19.3710,-0.103,-0.828,0.203,2.04,-1.41,1.04,-1.14,-2.59,-2.32
2022-12-06 15:33:19.3810,-0.088,-0.846,0.222,2.13,-1.11,0.75,-1.23,-2.6,-2.05
2022-12-06 15:33:19.3910,-0.086,-0.845,0.236,2.3,-1.03,0.41,-1.31,-2.52,-1.76
2022-12-06 15:33:19.4010,-0.102,-0.842,0.237,2.54,-1.06,0.15,-1.38,-2.39,-1.44
2022-12-06 15:33:19.4110,-0.133,-0.837,0.217,2.99,-1.12,0.05,-1.42,-2.27,-1.16
2022-12-06 15:33:19.4210,-0.125,-0.849,0.19,3.35,-1.14,0.12,-1.44,-2.14,-0.89
2022-12-06 15:33:19.4310,-0.088,-0.875,0.169,3.25,-0.94,0.18,-1.42,-2.02,-0.62
2022-12-06 15:33:19.4410,-0.041,-0.893,0.159,2.91,-0.74,0.19,-1.38,-1.86,-0.33
2022-12-06 15:33:19.4510,-0.025,-0.927,0.166,2.55,-0.54,0.04,-1.32,-1.66,-0.0
2022-12-06 15:33:19.4610,-0.064,-0.965,0.173,2.64,-0.18,-0.21,-1.28,-1.51,0.3
2022-12-06 15:33:19.4710,-0.114,-0.984,0.164,3.12,0.1,-0.38,-1.24,-1.38,0.54
2022-12-06 15:33:19.4810,-0.126,-0.995,0.142,3.47,0.2,-0.4,-1.2,-1.24,0.75
2022-12-06 15:33:19.4910,-0.106,-1.014,0.109,3.37,0.32,-0.25,-1.13,-1.07,0.95
2022-12-06 15:33:19.5010,-0.085,-1.014,0.094,3.06,0.43,-0.09,-1.02,-0.89,1.13
2022-12-06 15:33:19.5110,-0.072,-1.005,0.109,2.78,0.33,-0.17,-0.92,-0.73,1.28
2022-12-06 15:33:19.5210,-0.058,-1.013,0.135,2.54,0.25,-0.49,-0.86,-0.6,1.43
2022-12-06 15:33:19.5310,-0.04,-1.057,0.152,1.98,0.91,-1.04,-0.81,-0.5,1.59
2022-12-06 15:33:19.5410,-0.049,-1.106,0.166,1.98,0.91,-1.04,-0.79,-0.42,1.73
2022-12-06 15:33:19.5510,-0.068,-1.124,0.182,1.99,1.24,-1.29,-0.79,-0.37,1.81
2022-12-06 15:33:19.5610,-0.073,-1.131,0.171,1.95,1.33,-1.45,-0.78,-0.35,1.85
2022-12-06 15:33:19.5710,-0.071,-1.138,0.147,1.78,1.36,-1.34,-0.76,-0.38,1.87
2022-12-06 15:33:19.5810,-0.062,-1.143,0.14,1.55,1.42,-1.21,-0.75,-0.45,1.86
2022-12-06 15:33:19.5910,-0.039,-1.154,0.157,1.26,1.44,-1.33,-0.77,-0.51,1.83
2022-12-06 15:33:19.6010,0.002,-1.191,0.161,0.77,1.63,-1.58,-0.82,-0.53,1.82
2022-12-06 15:33:19.6110,0.038,-1.245,0.129,0.19,2.06,-1.57,-0.85,-0.54,1.8
2022-12-06 15:33:19.6210,0.045,-1.309,0.108,-0.26,2.63,-1.29,-0.86,-0.57,1.76
2022-12-06 15:33:19.6320,0.034,-1.361,0.145,-0.4,3.25,-1.39,-0.89,-0.6,1.69
2022-12-06 15:33:19.6420,0.012,-1.372,0.186,-0.43,3.65,-1.95,-0.96,-0.55,1.6
2022-12-06 15:33:19.6510,-0.032,-1.333,0.176,-0.28,3.57,-2.27,-1.01,-0.45,1.46
2022-12-06 15:33:19.6620,-0.072,-1.268,0.128,0.02,3.05,-2.1,-1.03,-0.35,1.31
2022-12-06 15:33:19.6710,-0.114,-1.213,0.086,0.27,2.43,-1.7,-0.99,-0.23,1.17
2022-12-06 15:33:19.6810,-0.153,-1.157,0.074,0.59,1.95,-1.47,-0.94,-0.09,1.03
2022-12-06 15:33:19.6910,-0.164,-1.094,0.1,0.8,1.36,-1.6,-0.85,0.02,0.88
2022-12-06 15:33:19.7010,-0.135,-1.05,0.152,0.68,0.81,-2.04,-0.75,0.12,0.76
2022-12-06 15:33:19.7110,-0.093,-1.028,0.224,0.22,0.48,-2.69,-0.64,0.2,0.68
2022-12-06 15:33:19.7210,-0.074,-1.012,0.306,-0.19,0.31,-3.52,-0.5,0.2,0.64
2022-12-06 15:33:19.7310,-0.072,-0.982,0.386,-0.34,0.17,-4.36,-0.35,0.11,0.6
2022-12-06 15:33:19.7410,-0.047,-0.894,0.456,-0.47,-0.32,-5.18,-0.18,-0.05,0.57
2022-12-06 15:33:19.7510,-0.006,-0.807,0.481,-0.86,-1.28,-5.74,0.03,-0.31,0.56
2022-12-06 15:33:19.7610,0.025,-0.774,0.501,-1.31,-1.95,-5.84,0.29,-0.67,0.54
2022-12-06 15:33:19.7710,0.027,-0.786,0.57,-1.57,-2.07,-6.18,0.49,-1.05,0.49
2022-12-06 15:33:19.7810,0.03,-0.824,0.67,-1.6,-1.86,-6.85,0.51,-1.5,0.45
2022-12-06 15:33:19.7910,-0.103,-1.432,0.838,-1.64,-0.7,-8.62,-1.29,-3.01,0.81
2022-12-06 15:33:19.8010,-0.655,-2.845,-0.277,1.09,9.53,-6.79,-2.45,-3.69,1.16
2022-12-06 15:33:19.8110,-1.958,-3.133,-1.471,24.01,18.26,14.04,-0.97,-0.92,0.76
2022-12-06 15:33:19.8220,-3.282,-2.184,-1.624,24.01,18.26,14.04,0.93,0.85,-0.64
2022-12-06 15:33:19.8320,-2.361,-1.154,-1.439,29.53,8.04,15.62,3.13,1.39,-2.45
2022-12-06 15:33:19.8410,-1.025,-0.208,1.15,16.3,-2.52,6.08,2.45,0.98,-3.59
2022-12-06 15:33:19.8510,0.324,-0.622,1.996,4.89,-7.86,-20.41,0.41,0.2,-3.06
2022-12-06 15:33:19.8610,2.12,-1.094,-0.272,-10.79,-0.73,-12.42,0.43,0.33,-1.45
2022-12-06 15:33:19.8710,2.346,-0.715,-0.327,-24.84,-0.14,5.89,0.62,-0.0,-0.73
2022-12-06 15:33:19.8810,1.32,-0.79,0.405,-20.01,-3.35,-1.43,0.3,-0.79,-0.66
2022-12-06 15:33:19.8920,0.52,-1.115,0.001,-10.09,-0.61,-3.5,0.32,-1.45,-0.34
2022-12-06 15:33:19.9020,-0.1,-1.113,0.032,-3.16,1.45,0.23,0.4,-0.95,-0.21
2022-12-06 15:33:19.9110,-0.581,-1.057,0.149,2.6,0.83,-1.6,0.49,-0.38,-0.46
2022-12-06 15:33:19.9210,-0.642,-1.058,0.149,6.18,0.53,-1.63,0.55,0.19,-0.74
2022-12-06 15:33:19.9310,-0.247,-1.085,0.311,4.91,0.64,-2.38,0.39,0.87,-0.8
2022-12-06 15:33:19.9410,0.193,-1.133,0.351,0.42,1.02,-3.68,0.22,1.03,-0.71
2022-12-06 15:33:19.9510,0.44,-1.102,0.281,-3.17,1.31,-3.56,0.12,0.52,-0.54
2022-12-06 15:33:19.9620,0.5,-1.033,0.118,-4.84,0.71,-2.56,0.1,-0.03,-0.39
2022-12-06 15:33:19.9710,0.345,-1.0,-0.069,-4.66,0.18,-0.66,0.1,-0.2,-0.25
2022-12-06 15:33:19.9810,0.026,-0.965,-0.172,-2.34,-0.12,0.87,0.13,-0.12,-0.13
2022-12-06 15:33:19.9920,-0.226,-0.956,-0.248,0.89,-0.43,1.75,0.21,0.14,-0.18
2022-12-06 15:33:20.0010,-0.231,-0.976,-0.221,2.51,-0.38,2.29,0.28,0.45,-0.33
2022-12-06 15:33:20.0110,-0.09,-0.996,-0.108,1.87,-0.15,1.57,0.32,0.55,-0.39
2022-12-06 15:33:20.0210,0.051,-1.012,-0.032,0.38,0.01,0.56,0.32,0.46,-0.38
2022-12-06 15:33:20.0310,0.126,-1.032,-0.011,-0.74,0.18,0.04,0.31,0.28,-0.32
2022-12-06 15:33:20.0410,0.121,-1.049,-0.022,-1.14,0.38,0.04,0.29,0.11,-0.26
2022-12-06 15:33:20.0520,0.071,-1.037,-0.036,-0.88,0.48,0.21,0.3,0.05,-0.22
2022-12-06 15:33:20.0620,-0.009,-1.009,-0.029,-0.21,0.24,0.32,0.32,0.09,-0.22
2022-12-06 15:33:20.0710,-0.046,-0.993,-0.022,0.53,0.02,0.21,0.32,0.14,-0.26
2022-12-06 15:33:20.0810,0.002,-0.992,-0.03,0.61,-0.1,0.28,0.32,0.17,-0.3
2022-12-06 15:33:20.0920,0.088,-0.988,-0.003,-0.06,-0.07,0.29,0.32,0.17,-0.29
2022-12-06 15:33:20.1010,0.139,-0.978,0.026,-0.81,-0.17,-0.02,0.32,0.14,-0.25
2022-12-06 15:33:20.1120,0.145,-0.985,0.043,-1.08,-0.19,-0.2,0.31,0.09,-0.21
2022-12-06 15:33:20.1220,0.15,-0.989,0.047,-1.08,-0.12,-0.32,0.3,0.06,-0.18
2022-12-06 15:33:20.1310,0.154,-0.98,0.038,-1.13,-0.12,-0.23,0.29,0.05,-0.13
2022-12-06 15:33:20.1420,0.152,-0.968,0.052,-1.11,-0.24,-0.21,0.27,0.04,-0.09
2022-12-06 15:33:20.1520,0.164,-0.957,0.054,-1.13,-0.34,-0.29,0.26,0.02,-0.05
2022-12-06 15:33:20.1620,0.183,-0.949,0.055,-1.28,-0.45,-0.28,0.23,0.03,-0.01
2022-12-06 15:33:20.1720,0.155,-0.949,0.05,-1.4,-0.51,-0.24,0.21,0.11,0.02
2022-12-06 15:33:20.1820,0.061,-0.95,0.063,-0.82,-0.49,-0.21,0.21,0.2,0.04
2022-12-06 15:33:20.1920,-0.006,-0.965,0.053,0.12,-0.46,-0.31,0.23,0.32,-0.01
2022-12-06 15:33:20.2020,-0.02,-0.995,0.044,0.53,-0.21,-0.11,0.23,0.43,-0.06
2022-12-06 15:33:20.2120,-0.039,-1.005,0.013,0.66,0.02,-0.04,0.26,0.4,-0.09
2022-12-06 15:33:20.2220,-0.058,-1.003,-0.018,0.85,0.08,0.49,0.27,0.39,-0.12
2022-12-06 15:33:20.2320,-0.084,-0.995,-0.011,1.1,0.0,0.52,0.28,0.29,-0.14
2022-12-06 15:33:20.2420,-0.064,-1.006,-0.01,1.25,-0.01,0.61,0.27,0.17,-0.17
2022-12-06 15:33:20.2520,-0.003,-1.002,0.021,0.88,0.1,0.45,0.26,0.05,-0.2
2022-12-06 15:33:20.2620,0.043,-0.99,0.022,0.26,-0.03,0.28,0.27,0.01,-0.21
2022-12-06 15:33:20.2720,-0.002,-0.996,0.026,0.13,-0.06,0.31,0.28,0.02,-0.22
2022-12-06 15:33:20.2820,-0.063,-0.993,0.025,0.81,-0.02,0.29,0.31,0.06,-0.27
2022-12-06 15:33:20.2920,-0.066,-1.002,0.021,1.24,-0.03,0.37,0.34,0.16,-0.34
2022-12-06 15:33:20.3020,-0.035,-0.993,0.028,1.12,0.06,0.41,0.37,0.25,-0.38
2022-12-06 15:33:20.3120,-0.01,-0.973,0.03,0.85,-0.13,0.35,0.41,0.34,-0.42
2022-12-06 15:33:20.3210,-0.002,-0.971,0.021,0.69,-0.22,0.46,0.46,0.39,-0.48
2022-12-06 15:33:20.3320,-0.032,-0.979,0.0,0.78,-0.24,0.57,0.49,0.41,-0.53
2022-12-06 15:33:20.3420,-0.09,-0.998,0.011,1.27,-0.06,0.87,0.49,0.32,-0.56
2022-12-06 15:33:20.3520,-0.093,-1.02,0.051,1.81,0.11,0.57,0.49,0.27,-0.65
2022-12-06 15:33:20.3620,-0.024,-1.03,0.043,1.54,0.36,0.4,0.5,0.23,-0.71
2022-12-06 15:33:20.3720,0.006,-1.016,0.056,1.0,0.31,0.5,0.5,0.21,-0.7
2022-12-06 15:33:20.3820,0.024,-1.036,0.067,0.91,0.29,0.43,0.5,0.21,-0.74
2022-12-06 15:33:20.3920,0.078,-1.042,0.09,0.68,0.54,0.3,0.5,0.21,-0.77
2022-12-06 15:33:20.4020,0.112,-1.012,0.095,0.19,0.44,0.19,0.52,0.2,-0.75
2022-12-06 15:33:20.4120,0.092,-0.995,0.099,0.15,0.18,0.22,0.55,0.21,-0.75
2022-12-06 15:33:20.4220,0.059,-0.988,0.107,0.51,0.07,0.2,0.57,0.22,-0.78
2022-12-06 15:33:20.4320,0.055,-0.997,0.107,0.86,0.09,0.23,0.57,0.18,-0.81
2022-12-06 15:33:20.4420,0.09,-1.003,0.119,0.8,0.17,0.25,0.56,0.09,-0.83
2022-12-06 15:33:20.4520,0.142,-1.017,0.136,0.45,0.31,0.14,0.57,0.07,-0.84
2022-12-06 15:33:20.4620,0.162,-1.005,0.149,0.07,0.38,0.08,0.59,0.07,-0.83
2022-12-06 15:33:20.4720,0.151,-0.999,0.167,0.13,0.25,-0.06,0.6,0.04,-0.84
2022-12-06 15:33:20.4820,0.164,-1.01,0.16,0.27,0.32,-0.07,0.63,0.01,-0.86
2022-12-06 15:33:20.4920,0.174,-1.008,0.168,0.16,0.41,0.04,0.63,-0.02,-0.85
2022-12-06 15:33:20.5020,0.15,-1.017,0.178,0.27,0.41,-0.01,0.63,-0.05,-0.86
2022-12-06 15:33:20.5120,0.133,-1.031,0.177,0.63,0.59,-0.04,0.63,-0.05,-0.9
2022-12-06 15:33:20.5220,0.128,-1.031,0.185,0.79,0.7,0.05,0.66,-0.04,-0.92
2022-12-06 15:33:20.5320,0.099,-1.065,0.165,1.0,0.79,0.05,0.69,-0.0,-0.93
2022-12-06 15:33:20.5420,0.039,-1.112,0.175,1.5,1.3,0.35,0.71,-0.02,-0.96
2022-12-06 15:33:20.5520,-0.007,-1.119,0.173,2.2,1.68,0.19,0.75,0.01,-1.06
2022-12-06 15:33:20.5620,-0.029,-1.098,0.17,2.61,1.62,0.41,0.8,0.03,-1.13
2022-12-06 15:33:20.5710,-0.066,-1.111,0.169,3.0,1.53,0.43,0.87,0.04,-1.22
2022-12-06 15:33:20.5820,-0.076,-1.178,0.146,3.42,1.9,0.64,0.97,0.03,-1.31
2022-12-06 15:33:20.5920,-0.092,-1.278,0.132,3.56,2.8,0.93,1.04,0.07,-1.4
2022-12-06 15:33:20.6010,-0.187,-1.328,0.12,4.1,3.77,1.15,1.11,0.15,-1.5
2022-12-06 15:33:20.6110,-0.309,-1.333,0.101,5.38,4.07,1.39,1.18,0.26,-1.65
2022-12-06 15:33:20.6220,-0.388,-1.371,0.122,6.6,4.27,1.63,1.24,0.4,-1.82
2022-12-06 15:33:20.6310,-0.428,-1.445,0.17,7.36,4.91,1.35,1.28,0.54,-1.99
2022-12-06 15:33:20.6420,-0.44,-1.498,0.21,7.82,5.73,1.08,1.31,0.64,-2.16
2022-12-06 15:33:20.6520,-0.41,-1.523,0.269,7.96,6.23,0.74,1.31,0.67,-2.3
2022-12-06 15:33:20.6620,-0.343,-1.495,0.289,7.71,6.49,0.35,1.35,0.59,-2.38
2022-12-06 15:33:20.6720,-0.218,-1.43,0.215,7.02,6.1,0.62,1.4,0.36,-2.38
2022-12-06 15:33:20.6820,-0.138,-1.404,0.108,5.96,5.74,1.7,1.46,0.1,-2.37
2022-12-06 15:33:20.6920,-0.159,-1.363,-0.063,5.84,5.65,3.01,1.6,-0.18,-2.46
2022-12-06 15:33:20.7020,-0.032,-1.395,-0.146,6.05,5.48,4.83,1.75,-0.55,-2.62
2022-12-06 15:33:20.7120,0.311,-1.585,0.076,4.06,6.61,4.77,1.9,-0.56,-2.89
2022-12-06 15:33:20.7220,0.541,-1.827,0.391,0.91,9.04,1.75,1.69,-0.33,-3.02
2022-12-06 15:33:20.7320,0.48,-1.908,0.338,-0.07,11.36,-0.11,1.3,-0.44,-2.69
2022-12-06 15:33:20.7420,0.19,-1.62,0.143,1.79,11.08,1.5,1.01,-0.76,-2.35
2022-12-06 15:33:20.7520,0.008,-1.197,0.062,4.83,7.41,3.07,0.73,-0.73,-2.1
2022-12-06 15:33:20.7620,-0.016,-0.966,-0.007,5.97,3.92,3.62,0.39,-0.15,-1.78
2022-12-06 15:33:20.7720,-0.03,-0.931,-0.095,6.26,2.62,4.58,0.24,0.57,-1.41
2022-12-06 15:33:20.7820,0.04,-0.906,-0.026,6.26,2.66,4.96,0.23,1.0,-1.14
2022-12-06 15:33:20.7920,0.174,-0.816,0.065,5.2,2.14,4.1,0.1,1.17,-0.84
2022-12-06 15:33:20.8020,0.238,-0.768,0.125,4.07,1.44,3.37,-0.24,1.1,-0.33
2022-12-06 15:33:20.8120,0.265,-0.662,0.128,3.62,0.88,3.04,-0.53,1.01,0.35
2022-12-06 15:33:20.8220,0.286,-0.53,0.102,3.31,-0.47,3.18,-0.69,1.04,0.94
2022-12-06 15:33:20.8320,0.295,-0.471,0.097,3.03,-1.64,3.44,-0.75,1.02,1.38
2022-12-06 15:33:20.8420,0.314,-0.507,0.155,2.82,-1.98,3.29,-0.82,0.83,1.73
2022-12-06 15:33:20.8520,0.366,-0.574,0.254,2.35,-1.54,2.48,-1.01,0.53,2.07
2022-12-06 15:33:20.8620,0.441,-0.605,0.31,1.57,-1.15,1.54,-1.25,0.23,2.38
2022-12-06 15:33:20.8720,0.535,-0.614,0.311,0.59,-1.15,1.14,-1.51,-0.08,2.71
2022-12-06 15:33:20.8820,0.631,-0.612,0.287,-0.58,-1.32,1.13,-1.77,-0.35,3.1
2022-12-06 15:33:20.8920,0.672,-0.597,0.268,-1.61,-1.6,1.21,-2.03,-0.52,3.52
2022-12-06 15:33:20.9020,0.638,-0.541,0.251,-1.97,-2.12,1.18,-2.28,-0.6,3.93
2022-12-06 15:33:20.9120,0.574,-0.497,0.198,-1.78,-3.03,1.23,-2.47,-0.65,4.29
2022-12-06 15:33:20.9220,0.474,-0.522,0.136,-1.37,-3.43,1.63,-2.55,-0.67,4.59
2022-12-06 15:33:20.9320,0.378,-0.546,0.111,-0.7,-3.38,1.87,-2.56,-0.57,4.82
2022-12-06 15:33:20.9420,0.311,-0.563,0.087,-0.29,-3.42,1.81,-2.46,-0.38,5.0
2022-12-06 15:33:20.9520,0.241,-0.568,0.036,-0.11,-3.52,1.91,-2.27,-0.13,5.13
2022-12-06 15:33:20.9620,0.133,-0.57,-0.017,0.22,-3.68,2.28,-2.02,0.13,5.22
2022-12-06 15:33:20.9720,0.01,-0.628,0.063,0.92,-3.71,2.36,-1.92,0.34,5.23
2022-12-06 15:33:20.9820,-0.006,-0.827,0.325,1.42,-2.8,0.54,-2.07,0.41,5.19
2022-12-06 15:33:20.9920,0.164,-1.116,0.509,0.36,-0.43,-2.2,-2.33,0.39,5.13
2022-12-06 15:33:21.0020,0.431,-1.308,0.57,-2.27,2.12,-3.72,-2.59,0.3,5.15
2022-12-06 15:33:21.0120,0.642,-1.34,0.529,-5.47,3.43,-4.24,-2.8,0.16,5.21
2022-12-06 15:33:21.0220,0.678,-1.238,0.378,-7.39,3.16,-3.64,-2.83,-0.03,5.23
2022-12-06 15:33:21.0320,0.578,-1.08,0.253,-7.68,1.89,-2.33,-2.71,-0.2,5.16
2022-12-06 15:33:21.0420,0.417,-0.932,0.241,-6.89,0.37,-1.78,-2.53,-0.32,5.07
2022-12-06 15:33:21.0520,0.242,-0.861,0.247,-5.72,-0.79,-2.12,-2.28,-0.34,5.0
2022-12-06 15:33:21.0620,0.064,-0.915,0.208,-4.44,-0.93,-2.2,-1.91,-0.21,4.9
2022-12-06 15:33:21.0720,-0.082,-1.055,0.198,-3.22,0.16,-1.96,-1.49,0.08,4.65
2022-12-06 15:33:21.0820,-0.159,-1.191,0.274,-2.41,1.76,-2.31,-1.14,0.42,4.21
2022-12-06 15:33:21.0920,-0.143,-1.263,0.406,-2.36,3.09,-3.44,-0.94,0.6,3.58
2022-12-06 15:33:21.1020,-0.022,-1.234,0.53,-3.19,3.55,-4.92,-0.87,0.45,2.9
2022-12-06 15:33:21.1120,0.132,-1.187,0.54,-4.92,3.19,-5.9,-0.82,0.15,2.2
2022-12-06 15:33:21.1220,0.178,-1.152,0.454,-6.29,2.94,-5.61,-0.69,-0.09,1.49
2022-12-06 15:33:21.1320,0.144,-1.055,0.363,-6.47,2.49,-4.72,-0.45,-0.22,0.81
2022-12-06 15:33:21.1420,0.103,-0.923,0.286,-6.09,1.35,-3.91,-0.12,-0.24,0.16
2022-12-06 15:33:21.1520,0.126,-0.828,0.232,-5.84,0.12,-3.18,0.24,-0.22,-0.49
2022-12-06 15:33:21.1620,0.236,-0.824,0.249,-6.35,-0.55,-2.84,0.56,-0.23,-1.1
2022-12-06 15:33:21.1720,0.379,-0.933,0.348,-7.57,-0.29,-3.24,0.65,-0.35,-1.54
2022-12-06 15:33:21.1820,0.405,-1.135,0.391,-8.53,1.25,-4.18,0.71,-0.42,-1.71
2022-12-06 15:33:21.1920,0.331,-1.256,0.47,-8.27,2.84,-4.35,0.69,-0.44,-1.94
2022-12-06 15:33:21.2020,-0.056,-1.479,0.676,-6.52,4.12,-5.6,0.16,-0.14,-1.96
2022-12-06 15:33:21.2120,-0.744,-1.684,0.467,-1.22,6.5,-7.18,-0.27,0.13,-1.25
2022-12-06 15:33:21.2220,-1.416,-1.613,-0.48,6.07,7.74,-1.57,0.51,-0.51,-1.03
2022-12-06 15:33:21.2320,-1.451,-1.24,-0.525,11.25,5.6,6.23,1.3,-0.73,-1.98
2022-12-06 15:33:21.2420,-0.75,-0.945,0.131,8.42,1.71,2.77,1.41,-0.3,-2.86
2022-12-06 15:33:21.2520,0.001,-0.949,0.551,1.09,-0.34,-3.29,0.92,-0.43,-3.01
2022-12-06 15:33:21.2620,0.611,-1.244,0.432,-5.64,0.94,-5.4,0.54,-1.09,-2.47
2022-12-06 15:33:21.2720,0.858,-1.35,0.213,-10.31,3.67,-2.92,0.43,-1.49,-1.9
2022-12-06 15:33:21.2820,0.778,-1.19,0.237,-11.09,3.36,-1.7,0.35,-1.4,-1.66
2022-12-06 15:33:21.2920,0.568,-1.027,0.263,-9.52,1.53,-2.15,0.29,-1.09,-1.63
2022-12-06 15:33:21.3020,0.305,-0.971,0.184,-7.02,0.22,-1.96,0.32,-0.84,-1.55
2022-12-06 15:33:21.3120,0.085,-1.023,0.088,-4.36,0.07,-0.91,0.49,-0.55,-1.41
2022-12-06 15:33:21.3220,-0.057,-1.115,0.106,-2.34,0.83,-0.22,0.63,-0.18,-1.38
2022-12-06 15:33:21.3320,-0.069,-1.114,0.184,-1.19,1.5,-0.75,0.62,0.16,-1.41
2022-12-06 15:33:21.3420,0.054,-1.025,0.184,-1.54,1.02,-1.25,0.51,0.26,-1.35
2022-12-06 15:33:21.3520,0.199,-0.945,0.137,-2.83,0.09,-0.94,0.45,0.15,-1.18
2022-12-06 15:33:21.3620,0.276,-0.915,0.117,-3.95,-0.56,-0.46,0.46,-0.09,-0.98
2022-12-06 15:33:21.3720,0.269,-0.946,0.176,-4.3,-0.64,-0.46,0.44,-0.28,-0.83
2022-12-06 15:33:21.3820,0.176,-1.016,0.288,-3.83,-0.15,-1.3,0.35,-0.46,-0.72
2022-12-06 15:33:21.3920,0.049,-1.062,0.356,-2.63,0.52,-2.3,0.2,-0.66,-0.64
2022-12-06 15:33:21.4020,-0.043,-1.059,0.322,-1.38,0.77,-2.59,0.08,-0.71,-0.58
2022-12-06 15:33:21.4120,-0.082,-1.036,0.193,-0.62,0.62,-1.87,-0.0,-0.56,-0.55
2022-12-06 15:33:21.4220,-0.094,-1.007,0.02,-0.33,0.36,-0.32,0.04,-0.31,-0.55
2022-12-06 15:33:21.4320,-0.108,-0.969,-0.044,-0.17,0.04,1.14,0.14,0.0,-0.57
2022-12-06 15:33:21.4420,-0.152,-0.947,-0.031,0.11,-0.31,1.34,0.23,0.28,-0.57
2022-12-06 15:33:21.4520,-0.198,-0.947,-0.03,0.68,-0.44,1.26,0.31,0.4,-0.59
2022-12-06 15:33:21.4620,-0.179,-0.951,0.006,1.0,-0.41,1.23,0.38,0.43,-0.63
2022-12-06 15:33:21.4720,-0.103,-0.968,0.084,0.61,-0.36,0.68,0.39,0.41,-0.64
2022-12-06 15:33:21.4820,-0.019,-1.003,0.135,-0.15,-0.1,0.02,0.36,0.33,-0.62
2022-12-06 15:33:21.4920,0.044,-1.03,0.165,-0.86,0.23,-0.37,0.32,0.2,-0.58
2022-12-06 15:33:21.5020,0.068,-1.034,0.164,-1.31,0.44,-0.54,0.27,0.07,-0.53
2022-12-06 15:33:21.5120,0.042,-1.004,0.139,-1.3,0.33,-0.39,0.24,-0.04,-0.5
2022-12-06 15:33:21.5220,-0.013,-0.973,0.104,-0.86,0.0,-0.06,0.25,-0.09,-0.48
2022-12-06 15:33:21.5320,-0.073,-0.959,0.086,-0.24,-0.26,0.27,0.27,-0.04,-0.5
2022-12-06 15:33:21.5420,-0.123,-0.973,0.076,0.39,-0.28,0.41,0.29,0.04,-0.54
2022-12-06 15:33:21.5520,-0.138,-0.977,0.077,0.82,-0.14,0.54,0.32,0.1,-0.59
2022-12-06 15:33:21.5620,-0.115,-0.97,0.101,0.89,-0.17,0.44,0.32,0.12,-0.63
2022-12-06 15:33:21.5720,-0.057,-0.98,0.119,0.59,-0.19,0.25,0.32,0.09,-0.66
2022-12-06 15:33:21.5820,0.01,-0.99,0.141,0.01,-0.05,0.09,0.31,0.01,-0.65
2022-12-06 15:33:21.5920,0.054,-0.992,0.152,-0.53,0.01,-0.06,0.3,-0.07,-0.62
2022-12-06 15:33:21.6020,0.048,-0.986,0.166,-0.75,-0.01,-0.14,0.3,-0.12,-0.59
2022-12-06 15:33:21.6120,-0.001,-0.997,0.161,-0.43,-0.02,-0.2,0.3,-0.13,-0.59
2022-12-06 15:33:21.6220,-0.06,-1.011,0.16,0.18,0.15,-0.11,0.3,-0.09,-0.62
2022-12-06 15:33:21.6320,-0.101,-1.01,0.127,0.77,0.22,-0.01,0.34,0.02,-0.68
2022-12-06 15:33:21.6420,-0.141,-1.007,0.13,1.21,0.2,0.39,0.38,0.17,-0.75
2022-12-06 15:33:21.6520,-0.166,-1.012,0.155,1.66,0.2,0.1,0.38,0.32,-0.82
2022-12-06 15:33:21.6620,-0.157,-1.017,0.096,1.86,0.28,0.26,0.41,0.41,-0.9
2022-12-06 15:33:21.6720,-0.119,-1.001,0.081,1.73,0.27,0.8,0.43,0.42,-0.96
2022-12-06 15:33:21.6820,-0.088,-0.975,0.058,1.4,0.06,0.95,0.48,0.4,-0.98
2022-12-06 15:33:21.6920,-0.102,-0.952,0.061,1.38,-0.17,1.22,0.52,0.34,-1.02
2022-12-06 15:33:21.7020,-0.132,-0.948,0.081,1.67,-0.35,1.1,0.55,0.24,-1.08
2022-12-06 15:33:21.7120,-0.17,-0.965,0.058,2.12,-0.25,1.08,0.59,0.13,-1.17
2022-12-06 15:33:21.7220,-0.213,-0.978,0.045,2.61,-0.09,1.42,0.61,0.0,-1.27
2022-12-06 15:33:21.7320,-0.246,-1.0,0.037,3.18,0.09,1.53,0.65,-0.1,-1.4
2022-12-06 15:33:21.7420,-0.233,-1.026,0.031,3.48,0.36,1.68,0.7,-0.1,-1.55
2022-12-06 15:33:21.7520,-0.187,-1.041,0.032,3.38,0.63,1.77,0.77,-0.05,-1.68
2022-12-06 15:33:21.7620,-0.103,-1.043,0.018,2.93,0.76,1.89,0.87,0.03,-1.77
2022-12-06 15:33:21.7720,-0.034,-1.052,-0.0,2.27,0.79,2.12,0.98,0.13,-1.82
2022-12-06 15:33:21.7820,-0.001,-1.077,0.027,1.88,1.08,2.36,1.1,0.22,-1.85
2022-12-06 15:33:21.7920,0.023,-1.101,0.072,1.85,1.29,1.94,1.2,0.29,-1.94
2022-12-06 15:33:21.8020,0.079,-1.118,0.093,1.66,1.68,1.85,1.31,0.28,-1.97
2022-12-06 15:33:21.8120,0.116,-1.149,0.178,1.3,1.82,1.51,1.4,0.17,-1.98
2022-12-06 15:33:21.8220,0.147,-1.249,0.239,1.15,2.52,0.81,1.47,0.14,-1.98
2022-12-06 15:33:21.8320,0.093,-1.377,0.27,1.19,3.73,0.52,1.57,0.08,-1.88
2022-12-06 15:33:21.8420,-0.047,-1.465,0.33,2.34,5.0,0.23,1.63,0.01,-1.88
2022-12-06 15:33:21.8520,-0.147,-1.52,0.288,3.84,5.86,0.06,1.71,0.07,-2.0
2022-12-06 15:33:21.8620,-0.206,-1.516,0.25,4.78,6.26,0.77,1.77,0.12,-2.13
2022-12-06 15:33:21.8720,-0.252,-1.547,0.203,5.49,6.4,1.24,1.84,0.4,-2.36
2022-12-06 15:33:21.8820,-0.309,-1.587,0.143,6.11,6.98,1.97,1.88,0.78,-2.52
2022-12-06 15:33:21.8920,-0.399,-1.575,0.031,7.0,7.37,2.81,1.88,0.88,-2.45
2022-12-06 15:33:21.9020,-0.501,-1.514,-0.154,8.04,7.26,4.42,1.9,0.82,-2.26
2022-12-06 15:33:21.9120,-0.697,-1.324,-0.496,9.53,6.45,6.96,2.22,0.75,-2.23
2022-12-06 15:33:21.9220,-0.665,-1.179,-0.355,11.34,4.42,9.8,2.57,0.39,-2.49
2022-12-06 15:33:21.9320,-0.199,-1.49,0.162,9.48,4.74,6.21,2.53,0.07,-2.88
2022-12-06 15:33:21.9420,0.37,-1.982,0.396,4.25,9.26,2.0,2.18,-0.34,-3.1
2022-12-06 15:33:21.9520,0.68,-2.2,0.318,-0.42,13.8,1.17,1.87,-0.82,-3.04
2022-12-06 15:33:21.9620,0.671,-2.047,0.228,-1.98,14.54,2.47,1.64,-1.39,-2.76
2022-12-06 15:33:21.9720,0.434,-1.785,0.219,-0.62,12.66,2.89,1.31,-1.81,-2.44
2022-12-06 15:33:21.9820,0.173,-1.484,0.136,2.29,10.15,3.16,0.97,-1.84,-2.09
2022-12-06 15:33:21.9920,0.024,-1.181,0.059,4.71,7.21,4.11,0.69,-1.43,-1.74
2022-12-06 15:33:22.0020,-0.021,-1.045,0.126,5.92,4.77,4.35,0.5,-0.79,-1.35
2022-12-06 15:33:22.0120,0.046,-1.006,0.25,6.12,4.25,3.33,0.47,-0.55,-1.15
2022-12-06 15:33:22.0220,0.221,-0.962,0.381,5.06,3.74,2.06,0.13,-0.61,-0.96
2022-12-06 15:33:22.0320,0.346,-1.052,0.461,3.37,3.91,0.73,-0.79,-0.92,-0.31
2022-12-06 15:33:22.0420,0.275,-0.957,0.226,2.9,4.5,0.8,-1.47,-1.01,0.37
2022-12-06 15:33:22.0520,0.216,-0.703,-0.074,3.94,2.51,3.7,-1.8,-0.72,0.75
2022-12-06 15:33:22.0620,0.31,-0.54,-0.215,3.88,0.08,5.96,-1.88,-0.16,1.09
2022-12-06 15:33:22.0720,0.405,-0.491,-0.221,2.67,-1.24,6.69,-1.8,0.46,1.5
2022-12-06 15:33:22.0820,0.398,-0.507,-0.101,1.98,-1.57,6.19,-1.71,0.98,1.89
2022-12-06 15:33:22.0920,0.338,-0.522,0.072,2.14,-1.56,4.65,-1.74,1.28,2.25
2022-12-06 15:33:22.1020,0.268,-0.529,0.222,2.58,-1.65,2.94,-1.86,1.38,2.58
2022-12-06 15:33:22.1120,0.198,-0.525,0.314,3.03,-1.85,1.59,-2.02,1.34,2.88
2022-12-06 15:33:22.1220,0.151,-0.519,0.336,3.4,-2.14,0.88,-2.17,1.25,3.11
2022-12-06 15:33:22.1320,0.144,-0.528,0.314,3.44,-2.44,0.77,-2.3,1.14,3.28
2022-12-06 15:33:22.1420,0.181,-0.589,0.295,3.06,-2.42,0.88,-2.41,1.06,3.43
2022-12-06 15:33:22.1520,0.253,-0.651,0.337,2.23,-1.96,0.81,-2.58,0.98,3.59
2022-12-06 15:33:22.1620,0.364,-0.669,0.478,1.08,-1.79,-0.2,-2.9,0.86,3.81
2022-12-06 15:33:22.1720,0.484,-0.702,0.588,-0.49,-1.85,-1.89,-3.26,0.65,4.14
2022-12-06 15:33:22.1820,0.551,-0.697,0.543,-1.88,-1.8,-2.72,-3.48,0.35,4.52
2022-12-06 15:33:22.1920,0.564,-0.661,0.372,-2.78,-2.34,-2.04,-3.48,0.05,4.89
2022-12-06 15:33:22.2020,0.48,-0.663,0.207,-3.05,-2.74,-0.46,-3.28,-0.14,5.11
2022-12-06 15:33:22.2120,0.321,-0.658,0.255,-2.32,-2.91,0.19,-3.1,-0.18,5.17
2022-12-06 15:33:22.2220,0.218,-0.695,0.423,-1.28,-3.05,-1.24,-3.04,-0.22,5.21
2022-12-06 15:33:22.2320,0.246,-0.815,0.57,-1.26,-2.47,-3.2,-3.07,-0.33,5.31
2022-12-06 15:33:22.2420,0.336,-0.967,0.648,-2.4,-1.19,-4.75,-3.17,-0.44,5.44
2022-12-06 15:33:22.2520,0.407,-1.104,0.587,-3.83,0.27,-5.38,-3.22,-0.5,5.55
2022-12-06 15:33:22.2620,0.409,-1.17,0.443,-4.83,1.42,-4.63,-3.13,-0.51,5.59
2022-12-06 15:33:22.2720,0.357,-1.161,0.36,-5.15,1.76,-3.61,-2.98,-0.46,5.54
2022-12-06 15:33:22.2820,0.292,-1.145,0.342,-5.09,1.68,-3.42,-2.82,-0.36,5.41
2022-12-06 15:33:22.2920,0.251,-1.135,0.293,-5.0,1.66,-3.47,-2.64,-0.29,5.25
2022-12-06 15:33:22.3020,0.248,-1.132,0.209,-5.26,1.73,-3.04,-2.39,-0.15,5.11
2022-12-06 15:33:22.3120,0.231,-1.153,0.155,-5.73,1.93,-2.47,-2.07,0.23,4.89
2022-12-06 15:33:22.3220,0.157,-1.198,0.193,-5.8,2.41,-2.4,-1.74,0.73,4.5
2022-12-06 15:33:22.3320,0.07,-1.283,0.331,-5.32,3.17,-3.38,-1.52,1.11,3.88
2022-12-06 15:33:22.3420,0.04,-1.342,0.489,-4.9,4.24,-5.09,-1.39,1.18,3.08
2022-12-06 15:33:22.3520,0.154,-1.296,0.562,-5.28,4.59,-6.61,-1.25,0.9,2.23
2022-12-06 15:33:22.3620,0.411,-1.156,0.561,-7.16,3.89,-7.1,-1.04,0.49,1.41
2022-12-06 15:33:22.3720,0.674,-0.986,0.541,-10.0,2.36,-7.1,-0.72,0.05,0.65
2022-12-06 15:33:22.3820,0.798,-0.877,0.498,-12.23,0.88,-6.86,-0.3,-0.41,-0.04
2022-12-06 15:33:22.3920,0.76,-0.845,0.49,-12.8,0.09,-6.46,0.15,-0.87,-0.73
2022-12-06 15:33:22.4020,0.67,-0.868,0.544,-11.97,-0.02,-6.57,0.54,-1.25,-1.45
2022-12-06 15:33:22.4120,0.67,-0.922,0.627,-11.22,0.23,-7.07,0.83,-1.68,-2.09
2022-12-06 15:33:22.4220,0.6,-1.16,0.832,-11.26,1.0,-8.19,0.57,-2.11,-2.3
2022-12-06 15:33:22.4320,0.184,-1.664,1.035,-9.19,4.26,-10.24,-0.78,-2.48,-1.55
2022-12-06 15:33:22.4420,-0.856,-1.979,0.41,-3.42,9.71,-10.67,-1.3,-1.75,0.33
2022-12-06 15:33:22.4520,-2.285,-1.434,-1.097,9.67,9.33,0.52,0.16,-1.55,0.3
2022-12-06 15:33:22.4620,-2.27,-1.022,-0.921,20.11,3.33,11.57,1.41,-1.02,-1.61
2022-12-06 15:33:22.4720,-1.33,-0.977,0.284,14.58,0.76,3.64,1.5,-0.13,-3.16
2022-12-06 15:33:22.4820,-0.42,-1.316,0.745,5.82,1.3,-6.68,0.92,-0.6,-3.31
2022-12-06 15:33:22.4920,0.487,-1.955,0.362,-3.21,6.31,-6.94,0.75,-1.01,-2.57
2022-12-06 15:33:22.5020,0.865,-1.872,0.331,-10.39,10.92,-3.38,0.56,-1.01,-2.22
2022-12-06 15:33:22.5120,0.863,-1.283,0.448,-11.97,6.92,-4.45,0.3,-0.77,-2.25
2022-12-06 15:33:22.5220,0.726,-1.013,0.28,-11.22,1.85,-4.54,0.28,-0.45,-2.21
2022-12-06 15:33:22.5320,0.478,-0.952,0.023,-9.2,0.28,-2.2,0.45,-0.34,-1.91
2022-12-06 15:33:22.5420,0.179,-0.893,-0.096,-6.32,-0.31,0.04,0.57,-0.37,-1.57
2022-12-06 15:33:22.5520,-0.009,-0.927,-0.062,-3.42,-0.75,0.63,0.65,-0.22,-1.51
2022-12-06 15:33:22.5620,0.007,-1.05,0.095,-2.2,0.03,-0.08,0.65,0.09,-1.66
2022-12-06 15:33:22.5720,0.15,-1.108,0.282,-2.78,1.09,-1.9,0.51,0.27,-1.61
2022-12-06 15:33:22.5820,0.295,-1.07,0.29,-4.19,1.24,-3.23,0.34,0.23,-1.32
2022-12-06 15:33:22.5920,0.332,-0.983,0.115,-5.2,0.58,-2.46,0.31,0.1,-1.01
2022-12-06 15:33:22.6020,0.206,-0.926,-0.017,-4.87,-0.27,-0.55,0.38,-0.02,-0.87
2022-12-06 15:33:22.6120,0.038,-0.943,0.027,-3.18,-0.6,0.09,0.39,-0.2,-0.8
2022-12-06 15:33:22.6220,-0.074,-1.015,0.101,-1.66,-0.16,-0.62,0.34,-0.32,-0.75
2022-12-06 15:33:22.6320,-0.151,-1.055,0.091,-0.63,0.5,-1.04,0.28,-0.32,-0.75
2022-12-06 15:33:22.6420,-0.191,-1.041,0.025,0.07,0.66,-0.64,0.25,-0.15,-0.78
2022-12-06 15:33:22.6520,-0.201,-0.992,-0.051,0.39,0.36,0.11,0.28,0.11,-0.79
2022-12-06 15:33:22.6620,-0.224,-0.936,-0.107,0.59,-0.19,0.84,0.37,0.32,-0.8
2022-12-06 15:33:22.6720,-0.242,-0.91,-0.107,0.93,-0.69,1.26,0.46,0.45,-0.84
2022-12-06 15:33:22.6820,-0.214,-0.926,-0.066,1.05,-0.79,1.07,0.5,0.42,-0.87
2022-12-06 15:33:22.6920,-0.129,-0.961,-0.029,0.64,-0.53,0.73,0.51,0.33,-0.89
2022-12-06 15:33:22.7020,-0.034,-0.991,0.024,-0.23,-0.2,0.36,0.48,0.23,-0.88
2022-12-06 15:33:22.7120,0.019,-0.999,0.059,-0.94,0.02,-0.1,0.45,0.08,-0.82
2022-12-06 15:33:22.7220,0.005,-0.995,0.063,-1.16,0.03,-0.28,0.42,-0.02,-0.76
2022-12-06 15:33:22.7320,-0.055,-0.99,0.047,-0.72,-0.02,-0.19,0.41,-0.02,-0.73
2022-12-06 15:33:22.7420,-0.121,-0.981,0.029,-0.01,-0.1,0.04,0.42,0.03,-0.76
2022-12-06 15:33:22.7520,-0.155,-0.968,0.023,0.64,-0.19,0.21,0.44,0.09,-0.81
2022-12-06 15:33:22.7620,-0.144,-0.952,0.019,0.89,-0.36,0.3,0.46,0.15,-0.86
2022-12-06 15:33:22.7720,-0.104,-0.96,0.022,0.74,-0.44,0.37,0.5,0.16,-0.89
2022-12-06 15:33:22.7820,-0.056,-0.977,0.026,0.37,-0.29,0.39,0.52,0.13,-0.9
2022-12-06 15:33:22.7920,-0.021,-0.978,0.06,0.04,-0.2,0.3,0.5,0.07,-0.9
2022-12-06 15:33:22.8020,0.008,-0.997,0.081,-0.21,-0.15,-0.01,0.47,0.05,-0.9
2022-12-06 15:33:22.8120,0.002,-1.022,0.072,-0.31,0.11,-0.03,0.47,0.04,-0.88
2022-12-06 15:33:22.8220,-0.046,-1.027,0.065,0.01,0.28,0.12,0.48,0.1,-0.88
2022-12-06 15:33:22.8320,-0.127,-1.038,0.083,0.69,0.31,0.18,0.48,0.2,-0.93
2022-12-06 15:33:22.8420,-0.176,-1.059,0.115,1.58,0.49,-0.06,0.49,0.28,-1.02
2022-12-06 15:33:22.8520,-0.151,-1.063,0.098,1.87,0.66,-0.21,0.49,0.35,-1.1
2022-12-06 15:33:22.8620,-0.101,-1.029,0.053,1.56,0.58,0.21,0.51,0.38,-1.16
2022-12-06 15:33:22.8720,-0.075,-0.991,0.028,1.24,0.19,0.61,0.53,0.37,-1.2
2022-12-06 15:33:22.8820,-0.082,-0.966,-0.015,1.22,-0.13,0.95,0.58,0.31,-1.23
2022-12-06 15:33:22.8920,-0.124,-0.977,-0.032,1.56,-0.26,1.43,0.62,0.27,-1.3
2022-12-06 15:33:22.9020,-0.17,-1.013,-0.014,2.14,0.0,1.45,0.65,0.27,-1.39
2022-12-06 15:33:22.9120,-0.193,-1.039,-0.021,2.67,0.37,1.43,0.69,0.3,-1.5
2022-12-06 15:33:22.9220,-0.198,-1.043,-0.016,2.93,0.56,1.57,0.74,0.35,-1.6
2022-12-06 15:33:22.9320,-0.194,-1.046,-0.008,3.13,0.59,1.53,0.79,0.43,-1.72
2022-12-06 15:33:22.9420,-0.165,-1.053,0.004,3.16,0.69,1.6,0.85,0.46,-1.82
2022-12-06 15:33:22.9520,-0.133,-1.054,0.055,3.0,0.77,1.4,0.92,0.47,-1.9
2022-12-06 15:33:22.9620,-0.112,-1.064,0.156,2.91,0.84,0.86,1.0,0.4,-1.95
2022-12-06 15:33:22.9720,-0.083,-1.111,0.204,2.88,1.11,-0.08,1.06,0.34,-2.04
2022-12-06 15:33:22.9820,-0.05,-1.13,0.194,2.73,1.62,0.0,1.14,0.22,-2.07
2022-12-06 15:33:22.9920,-0.047,-1.151,0.227,2.7,1.8,-0.01,1.21,0.12,-2.13
2022-12-06 15:33:23.0020,-0.046,-1.167,0.222,2.91,2.13,-0.1,1.31,0.15,-2.22
2022-12-06 15:33:23.0120,-0.067,-1.153,0.22,3.14,2.25,0.1,1.4,0.23,-2.27
2022-12-06 15:33:23.0220,-0.106,-1.155,0.207,3.67,2.19,0.28,1.48,0.3,-2.3
2022-12-06 15:33:23.0320,-0.124,-1.2,0.171,4.18,2.48,0.59,1.59,0.4,-2.36
2022-12-06 15:33:23.0420,-0.13,-1.283,0.158,4.48,3.18,1.15,1.71,0.44,-2.37
2022-12-06 15:33:23.0520,-0.176,-1.406,0.158,4.83,4.28,1.28,1.81,0.48,-2.38
2022-12-06 15:33:23.0620,-0.292,-1.532,0.195,5.71,5.72,1.47,1.84,0.53,-2.37
2022-12-06 15:33:23.0720,-0.458,-1.569,0.254,7.3,6.85,1.0,1.82,0.56,-2.44
2022-12-06 15:33:23.0820,-0.574,-1.544,0.23,9.05,7.05,0.93,1.86,0.54,-2.55
2022-12-06 15:33:23.0920,-0.598,-1.551,0.164,10.01,6.97,1.47,1.9,0.53,-2.64
2022-12-06 15:33:23.1020,-0.625,-1.6,0.049,10.31,7.51,2.59,1.88,0.49,-2.68
2022-12-06 15:33:23.1120,-0.629,-1.512,-0.007,10.87,7.86,3.64,1.93,0.13,-2.81
2022-12-06 15:33:23.1220,-0.502,-1.38,-0.203,10.7,6.66,4.66,2.21,-0.08,-3.2
2022-12-06 15:33:23.1320,-0.161,-1.62,-0.303,9.01,6.6,6.94,2.42,-0.22,-3.53
2022-12-06 15:33:23.1420,0.291,-2.123,-0.066,5.23,10.78,6.83,2.33,-0.22,-3.57
2022-12-06 15:33:23.1520,0.6,-2.233,0.226,1.33,15.28,3.89,1.98,-0.43,-3.4
2022-12-06 15:33:23.1620,0.646,-1.947,0.236,-0.51,14.65,2.04,1.56,-0.88,-3.19
2022-12-06 15:33:23.1720,0.557,-1.604,0.116,0.04,11.72,2.74,1.1,-1.26,-2.84
2022-12-06 15:33:23.1820,0.514,-1.22,0.035,1.04,8.41,3.87,0.73,-1.03,-2.28
2022-12-06 15:33:23.1920,0.474,-0.965,-0.002,1.57,5.0,4.45,0.5,-0.14,-1.67
2022-12-06 15:33:23.2020,0.474,-0.887,0.061,1.92,3.48,4.58,0.42,0.83,-1.2
2022-12-06 15:33:23.2120,0.442,-0.767,0.239,2.0,2.72,3.62,0.19,1.18,-0.93
2022-12-06 15:33:23.2220,0.413,-0.806,0.411,2.31,1.91,1.6,-0.51,0.69,-0.33
2022-12-06 15:33:23.2320,0.295,-0.822,0.302,2.78,2.74,0.88,-1.0,0.31,0.43
2022-12-06 15:33:23.2420,0.153,-0.603,0.113,4.2,1.79,2.54,-1.25,0.34,0.96
2022-12-06 15:33:23.2520,0.182,-0.415,0.017,5.05,-0.65,4.08,-1.34,0.5,1.27
2022-12-06 15:33:23.2620,0.367,-0.347,-0.002,3.94,-2.19,4.64,-1.3,0.56,1.59
2022-12-06 15:33:23.2720,0.552,-0.372,0.041,1.84,-2.64,4.58,-1.26,0.55,1.97
2022-12-06 15:33:23.2820,0.668,-0.451,0.178,0.11,-2.31,3.76,-1.43,0.5,2.4
2022-12-06 15:33:23.2920,0.707,-0.497,0.272,-0.94,-1.78,2.28,-1.75,0.42,2.86
2022-12-06 15:33:23.3020,0.655,-0.487,0.26,-1.21,-1.81,1.71,-2.06,0.34,3.31
2022-12-06 15:33:23.3120,0.537,-0.435,0.219,-0.65,-2.37,1.88,-2.33,0.19,3.73
2022-12-06 15:33:23.3220,0.403,-0.383,0.172,0.34,-3.22,2.12,-2.52,0.11,4.1
2022-12-06 15:33:23.3320,0.291,-0.359,0.119,1.31,-3.99,2.46,-2.63,0.17,4.42
2022-12-06 15:33:23.3420,0.213,-0.402,0.087,1.9,-4.3,2.7,-2.67,0.3,4.67
2022-12-06 15:33:23.3520,0.145,-0.434,0.116,2.25,-4.06,2.7,-2.7,0.45,4.78
2022-12-06 15:33:23.3620,0.17,-0.453,0.241,2.25,-4.23,1.82,-2.78,0.57,4.88
2022-12-06 15:33:23.3720,0.222,-0.565,0.397,1.29,-3.98,0.12,-2.92,0.47,5.06
2022-12-06 15:33:23.3820,0.268,-0.673,0.409,0.41,-2.97,-1.31,-2.98,0.21,5.24
2022-12-06 15:33:23.3920,0.33,-0.695,0.257,-0.62,-2.4,-1.02,-2.91,0.18,5.39
2022-12-06 15:33:23.4020,0.341,-0.664,0.143,-1.63,-2.67,0.47,-2.8,0.25,5.51
2022-12-06 15:33:23.4120,0.292,-0.732,0.265,-1.96,-2.95,0.39,-2.81,0.27,5.56
2022-12-06 15:33:23.4220,0.338,-0.952,0.438,-2.19,-1.75,-1.43,-2.93,0.24,5.61
2022-12-06 15:33:23.4320,0.463,-1.189,0.595,-3.65,0.58,-3.45,-3.13,0.32,5.69
2022-12-06 15:33:23.4420,0.514,-1.321,0.609,-5.3,2.59,-4.91,-3.34,0.47,5.71
2022-12-06 15:33:23.4520,0.47,-1.294,0.474,-5.94,3.28,-4.72,-3.39,0.58,5.57
2022-12-06 15:33:23.4620,0.412,-1.217,0.321,-5.91,2.75,-3.54,-3.28,0.7,5.3
2022-12-06 15:33:23.4720,0.392,-1.138,0.186,-5.94,2.04,-2.43,-3.07,0.91,5.01
2022-12-06 15:33:23.4820,0.421,-1.087,0.075,-6.42,1.43,-1.47,-2.75,1.1,4.81
2022-12-06 15:33:23.4920,0.431,-1.139,0.089,-7.21,1.34,-0.96,-2.36,1.32,4.63
2022-12-06 15:33:23.5020,0.335,-1.289,0.3,-7.34,2.5,-2.09,-2.03,1.56,4.29
2022-12-06 15:33:23.5120,0.269,-1.363,0.566,-6.66,4.03,-4.86,-1.8,1.57,3.79
2022-12-06 15:33:23.5220,0.313,-1.326,0.741,-6.73,4.47,-7.39,-1.62,1.21,3.14
2022-12-06 15:33:23.5320,0.471,-1.231,0.833,-7.8,3.96,-9.01,-1.45,0.51,2.38
2022-12-06 15:33:23.5420,0.699,-1.129,0.808,-9.92,3.07,-9.58,-1.21,-0.3,1.61
2022-12-06 15:33:23.5520,0.84,-1.035,0.748,-12.18,2.18,-9.21,-0.87,-1.0,0.88
2022-12-06 15:33:23.5620,0.805,-0.939,0.679,-12.96,1.29,-8.58,-0.45,-1.63,0.15
2022-12-06 15:33:23.5720,0.691,-0.872,0.596,-12.22,0.41,-7.82,0.02,-2.06,-0.64
2022-12-06 15:33:23.5820,0.58,-0.875,0.524,-10.98,-0.07,-6.85,0.46,-2.26,-1.47
2022-12-06 15:33:23.5920,0.457,-1.125,0.57,-9.93,0.41,-6.42,0.47,-2.46,-2.09
2022-12-06 15:33:23.6020,0.217,-1.58,0.734,-8.03,3.97,-6.82,0.07,-2.58,-2.09
2022-12-06 15:33:23.6120,-0.393,-1.929,0.978,-5.02,8.38,-9.44,-0.75,-1.3,-0.72
2022-12-06 15:33:23.6220,-1.767,-1.823,0.114,3.99,10.11,-9.15,-0.31,-1.11,0.71
2022-12-06 15:33:23.6320,-2.844,-1.743,-0.811,18.51,8.63,2.98,0.96,-2.23,-0.82
2022-12-06 15:33:23.6420,-2.109,-1.445,-0.179,22.86,7.7,6.38,1.64,-1.74,-2.75
2022-12-06 15:33:23.6530,-0.901,-1.085,0.72,12.02,3.33,-2.78,1.31,-1.46,-3.64
2022-12-06 15:33:23.6620,0.065,-1.469,0.661,1.54,2.14,-8.08,1.15,-1.77,-3.74
2022-12-06 15:33:23.6720,1.027,-1.768,0.545,-7.47,7.1,-5.76,0.58,-2.32,-3.32
2022-12-06 15:33:23.6820,1.619,-1.29,0.51,-15.98,6.87,-5.62,-0.11,-2.52,-2.63
2022-12-06 15:33:23.6920,1.516,-0.79,0.059,-19.0,0.96,-3.73,-0.2,-1.75,-2.02
2022-12-06 15:33:23.7020,0.928,-0.735,-0.465,-15.65,-2.34,1.55,0.17,-1.1,-1.56
2022-12-06 15:33:23.7120,0.245,-0.755,-0.633,-8.89,-2.11,5.84,0.82,-0.65,-1.33
2022-12-06 15:33:23.7220,-0.222,-0.786,-0.374,-2.67,-2.19,5.8,1.31,0.26,-1.43
2022-12-06 15:33:23.7320,-0.439,-0.989,0.044,1.12,-1.26,2.48,1.44,1.25,-1.78
2022-12-06 15:33:23.7420,-0.378,-1.169,0.437,2.44,0.93,-1.52,1.26,1.65,-1.99
2022-12-06 15:33:23.7520,-0.036,-1.165,0.697,0.96,2.01,-5.04,0.84,1.49,-1.79
2022-12-06 15:33:23.7620,0.407,-1.072,0.6,-2.98,1.44,-6.36,0.49,0.95,-1.38
2022-12-06 15:33:23.7720,0.679,-1.001,0.331,-6.77,0.52,-4.3,0.34,0.21,-1.04
2022-12-06 15:33:23.7820,0.725,-0.974,0.208,-8.5,-0.02,-1.95,0.28,-0.49,-0.81
2022-12-06 15:33:23.7920,0.538,-0.983,0.208,-8.04,-0.15,-1.35,0.17,-1.04,-0.61
2022-12-06 15:33:23.8020,0.175,-1.01,0.161,-5.32,0.02,-1.33,0.08,-1.35,-0.45
2022-12-06 15:33:23.8120,-0.192,-1.03,0.003,-1.53,0.29,-0.4,0.1,-1.33,-0.37
2022-12-06 15:33:23.8220,-0.468,-1.007,-0.164,1.89,0.37,1.37,0.24,-0.8,-0.45
2022-12-06 15:33:23.8320,-0.619,-0.927,-0.263,4.14,-0.09,2.81,0.41,0.04,-0.62
2022-12-06 15:33:23.8420,-0.68,-0.847,-0.269,5.38,-0.97,3.56,0.6,0.7,-0.86
2022-12-06 15:33:23.8520,-0.587,-0.838,-0.136,5.58,-1.56,3.13,0.75,0.97,-1.07
2022-12-06 15:33:23.8620,-0.348,-0.92,0.044,4.13,-1.29,1.59,0.78,0.98,-1.21
2022-12-06 15:33:23.8720,-0.068,-1.015,0.202,1.64,-0.33,-0.07,0.72,0.74,-1.22
2022-12-06 15:33:23.8820,0.189,-1.085,0.297,-0.99,0.51,-1.4,0.57,0.36,-1.11
2022-12-06 15:33:23.8920,0.3,-1.096,0.226,-3.03,1.05,-1.75,0.5,-0.0,-0.98
2022-12-06 15:33:23.9020,0.226,-1.025,0.105,-3.3,0.82,-0.56,0.51,-0.27,-0.89
2022-12-06 15:33:23.9120,0.027,-0.946,0.027,-1.94,0.0,0.49,0.57,-0.34,-0.83
2022-12-06 15:33:23.9220,-0.207,-0.922,-0.018,0.35,-0.62,1.23,0.64,-0.21,-0.87
2022-12-06 15:33:23.9320,-0.358,-0.956,0.001,2.56,-0.6,1.47,0.67,0.05,-1.0
2022-12-06 15:33:23.9420,-0.356,-0.994,0.031,3.6,-0.17,1.31,0.72,0.32,-1.18
2022-12-06 15:33:23.9520,-0.246,-1.006,0.106,3.23,0.13,0.92,0.72,0.43,-1.33
2022-12-06 15:33:23.9620,-0.05,-1.003,0.186,1.94,0.16,0.16,0.69,0.34,-1.38
2022-12-06 15:33:23.9720,0.141,-1.004,0.202,0.0,0.17,-0.35,0.69,0.18,-1.36
2022-12-06 15:33:23.9820,0.222,-0.997,0.203,-1.42,0.16,-0.33,0.71,0.05,-1.27
2022-12-06 15:33:23.9920,0.159,-0.997,0.175,-1.56,0.12,-0.17,0.73,-0.03,-1.21
2022-12-06 15:33:24.0020,0.023,-0.992,0.161,-0.4,0.17,0.16,0.73,-0.04,-1.23
2022-12-06 15:33:24.0120,-0.055,-0.988,0.124,0.95,0.08,0.39,0.77,-0.0,-1.3
2022-12-06 15:33:24.0220,-0.032,-1.024,0.12,1.48,0.2,0.84,0.81,0.13,-1.37
2022-12-06 15:33:24.0320,0.028,-1.068,0.145,1.11,0.68,0.74,0.84,0.23,-1.39
2022-12-06 15:33:24.0420,0.056,-1.096,0.132,0.76,1.08,0.67,0.88,0.26,-1.41
2022-12-06 15:33:24.0520,0.051,-1.116,0.122,0.7,1.37,1.02,0.92,0.29,-1.4
2022-12-06 15:33:24.0620,-0.032,-1.111,0.129,1.14,1.53,1.02,0.96,0.33,-1.42
2022-12-06 15:33:24.0720,-0.155,-1.073,0.145,2.33,1.39,1.13,1.02,0.22,-1.46
2022-12-06 15:33:24.0820,-0.234,-1.067,0.157,3.56,1.1,0.98,1.12,0.08,-1.58
2022-12-06 15:33:24.0920,-0.286,-1.094,0.172,4.33,1.28,1.04,1.21,-0.03,-1.7
2022-12-06 15:33:24.1020,-0.356,-1.115,0.199,5.05,1.6,0.89,1.29,-0.11,-1.87
2022-12-06 15:33:24.1120,-0.412,-1.128,0.184,5.92,1.85,0.93,1.4,-0.12,-2.06
2022-12-06 15:33:24.1220,-0.423,-1.152,0.211,6.52,2.08,1.09,1.51,-0.04,-2.24
2022-12-06 15:33:24.1320,-0.394,-1.191,0.228,6.67,2.51,0.93,1.62,0.09,-2.42
2022-12-06 15:33:24.1420,-0.342,-1.211,0.241,6.48,2.95,0.95,1.71,0.25,-2.56
2022-12-06 15:33:24.1520,-0.302,-1.246,0.208,6.21,3.26,1.08,1.84,0.37,-2.63
2022-12-06 15:33:24.1620,-0.28,-1.385,0.153,6.1,4.03,1.74,1.98,0.44,-2.63
2022-12-06 15:33:24.1720,-0.303,-1.647,0.123,6.18,6.09,2.47,2.07,0.47,-2.57
2022-12-06 15:33:24.1820,-0.442,-1.867,0.212,6.97,8.93,2.5,2.01,0.5,-2.55
2022-12-06 15:33:24.1920,-0.641,-1.876,0.182,8.92,10.58,1.89,1.96,0.48,-2.65
2022-12-06 15:33:24.2020,-0.705,-1.777,-0.005,10.77,10.18,3.12,1.95,0.42,-2.8
2022-12-06 15:33:24.2120,-0.66,-1.665,-0.232,10.99,9.5,5.27,2.06,0.35,-2.91
2022-12-06 15:33:24.2220,-0.602,-1.436,-0.536,10.8,8.06,8.12,2.45,0.02,-3.08
2022-12-06 15:33:24.2320,-0.259,-1.587,-0.512,9.8,6.84,10.53,2.74,-0.54,-3.27
2022-12-06 15:33:24.2420,0.398,-2.076,-0.069,5.2,10.39,8.74,2.74,-0.93,-3.41
2022-12-06 15:33:24.2520,0.896,-2.487,0.327,-0.91,15.61,3.92,2.3,-1.31,-3.48
2022-12-06 15:33:24.2630,0.993,-2.367,0.306,-4.15,18.53,1.61,1.71,-1.82,-3.23
2022-12-06 15:33:24.2720,0.778,-1.729,0.118,-3.31,15.19,2.88,1.19,-2.23,-2.65
2022-12-06 15:33:24.2820,0.594,-1.149,0.079,-0.8,8.67,4.26,0.8,-1.93,-1.97
2022-12-06 15:33:24.2920,0.477,-0.884,0.119,0.95,4.33,4.18,0.58,-0.97,-1.3
2022-12-06 15:33:24.3020,0.421,-0.809,0.264,1.87,2.77,3.42,0.54,-0.11,-0.89
2022-12-06 15:33:24.3120,0.323,-0.732,0.487,2.59,2.15,1.7,0.12,0.14,-0.54
2022-12-06 15:33:24.3220,0.195,-0.796,0.576,3.66,1.81,-0.47,-0.77,-0.25,0.09
2022-12-06 15:33:24.3320,0.007,-0.766,0.324,5.16,2.48,-0.03,-1.35,-0.5,0.74
2022-12-06 15:33:24.3420,-0.104,-0.548,0.062,6.95,1.17,2.78,-1.65,-0.37,1.11
2022-12-06 15:33:24.3520,0.012,-0.386,-0.075,7.2,-1.17,4.76,-1.79,-0.0,1.33
2022-12-06 15:33:24.3620,0.252,-0.338,-0.104,5.3,-2.45,5.61,-1.82,0.44,1.58
2022-12-06 15:33:24.3720,0.469,-0.338,-0.022,2.8,-2.87,5.38,-1.86,0.81,1.94
2022-12-06 15:33:24.3820,0.617,-0.353,0.1,0.72,-2.99,4.25,-1.97,1.09,2.39
2022-12-06 15:33:24.3920,0.653,-0.365,0.186,-0.57,-3.08,3.07,-2.12,1.25,2.9
2022-12-06 15:33:24.4020,0.572,-0.36,0.241,-0.74,-3.28,2.3,-2.28,1.31,3.4
2022-12-06 15:33:24.4120,0.406,-0.344,0.283,0.12,-3.69,1.71,-2.45,1.27,3.83
2022-12-06 15:33:24.4220,0.22,-0.345,0.309,1.57,-4.11,1.24,-2.62,1.17,4.16
2022-12-06 15:33:24.4320,0.084,-0.384,0.312,2.9,-4.29,0.91,-2.75,1.03,4.41
2022-12-06 15:33:24.4420,-0.011,-0.45,0.296,3.65,-4.06,0.79,-2.84,0.89,4.57
2022-12-06 15:33:24.4520,-0.057,-0.482,0.315,4.07,-3.76,0.7,-2.93,0.8,4.61
2022-12-06 15:33:24.4620,0.031,-0.521,0.414,3.65,-3.82,0.01,-3.12,0.76,4.64
2022-12-06 15:33:24.4720,0.196,-0.641,0.535,1.97,-3.37,-1.41,-3.39,0.65,4.78
2022-12-06 15:33:24.4820,0.388,-0.756,0.593,-0.22,-2.32,-2.76,-3.62,0.39,5.03
2022-12-06 15:33:24.4920,0.573,-0.808,0.512,-2.61,-1.62,-3.21,-3.69,0.13,5.34
2022-12-06 15:33:24.5020,0.653,-0.789,0.285,-4.73,-1.51,-2.14,-3.53,0.04,5.65
2022-12-06 15:33:24.5120,0.492,-0.705,0.215,-5.25,-2.17,-0.32,-3.31,-0.01,5.84
2022-12-06 15:33:24.5220,0.243,-0.759,0.381,-3.54,-2.84,-1.1,-3.21,-0.08,5.9
2022-12-06 15:33:24.5320,0.158,-0.991,0.579,-2.14,-1.56,-3.27,-3.23,-0.15,5.95
2022-12-06 15:33:24.5420,0.165,-1.224,0.685,-2.42,0.93,-5.4,-3.31,-0.1,5.94
2022-12-06 15:33:24.5530,0.158,-1.359,0.58,-3.04,2.93,-5.99,-3.3,0.1,5.77
2022-12-06 15:33:24.5620,0.146,-1.387,0.414,-3.5,3.93,-4.79,-3.17,0.3,5.56
2022-12-06 15:33:24.5720,0.142,-1.34,0.282,-3.89,4.02,-3.65,-2.96,0.51,5.37
2022-12-06 15:33:24.5820,0.18,-1.247,0.132,-4.5,3.48,-2.56,-2.59,0.7,5.2
2022-12-06 15:33:24.5920,0.216,-1.208,0.104,-5.42,2.8,-1.55,-2.14,0.98,4.93
2022-12-06 15:33:24.6020,0.194,-1.317,0.252,-6.01,3.11,-2.29,-1.8,1.42,4.39
2022-12-06 15:33:24.6120,0.114,-1.467,0.413,-5.94,4.77,-4.15,-1.57,1.75,3.64
2022-12-06 15:33:24.6220,0.04,-1.449,0.517,-5.29,5.96,-5.76,-1.39,1.69,2.77
2022-12-06 15:33:24.6320,0.118,-1.261,0.579,-5.21,5.16,-6.81,-1.18,1.31,1.8
2022-12-06 15:33:24.6420,0.347,-1.049,0.531,-6.68,3.17,-7.23,-0.84,0.87,0.75
2022-12-06 15:33:24.6520,0.644,-0.892,0.458,-9.39,1.28,-6.58,-0.33,0.51,-0.26
2022-12-06 15:33:24.6620,0.816,-0.817,0.466,-12.02,-0.01,-6.15,0.23,0.12,-1.09
2022-12-06 15:33:24.6720,0.783,-0.871,0.52,-12.79,-0.39,-6.46,0.75,-0.36,-1.83
2022-12-06 15:33:24.6820,0.724,-1.006,0.597,-11.91,0.47,-6.95,1.12,-0.89,-2.52
2022-12-06 15:33:24.6930,0.825,-1.09,0.695,-11.61,1.61,-7.67,1.29,-1.25,-3.07
2022-12-06 15:33:24.7020,0.989,-1.158,0.839,-12.89,1.92,-8.54,0.88,-1.68,-3.28
2022-12-06 15:33:24.7120,0.704,-1.56,0.858,-13.25,3.54,-9.75,-0.03,-1.72,-2.63
2022-12-06 15:33:24.7220,-0.245,-2.082,0.663,-7.94,8.29,-9.17,-1.08,-0.67,-0.56
2022-12-06 15:33:24.7320,-2.228,-2.007,-0.328,4.86,12.06,-5.63,-0.58,-0.39,1.07
2022-12-06 15:33:24.7430,-3.642,-1.716,-1.348,25.93,9.2,7.75,1.49,-0.69,-0.97
2022-12-06 15:33:24.7520,-2.474,-1.783,-0.475,30.1,7.99,10.45,3.25,-0.39,-3.75
2022-12-06 15:33:24.7630,-0.763,-1.289,1.057,14.56,7.16,-1.15,3.26,-0.26,-5.2
2022-12-06 15:33:24.7720,0.859,-1.114,2.205,-1.06,1.41,-16.52,1.54,-1.19,-4.85
2022-12-06 15:33:24.7820,2.453,-1.304,1.57,-17.07,2.59,-21.44,0.13,-1.5,-3.3
2022-12-06 15:33:24.7920,2.763,-0.852,0.378,-29.3,2.03,-10.96,-0.34,-1.21,-1.85
2022-12-06 15:33:24.8020,1.699,-0.584,-0.267,-25.94,-2.92,-0.81,-0.03,-1.6,-0.98
2022-12-06 15:33:24.8120,0.537,-0.708,-0.272,-13.77,-3.66,3.1,0.39,-1.92,-0.8
2022-12-06 15:33:24.8220,-0.216,-0.916,-0.159,-3.74,-2.03,1.78,0.5,-1.49,-1.0
2022-12-06 15:33:24.8320,-0.645,-1.128,-0.392,2.53,0.18,2.14,0.77,-0.5,-1.41
2022-12-06 15:33:24.8420,-0.657,-1.155,-0.373,5.39,1.71,4.49,1.09,0.6,-1.7
2022-12-06 15:33:24.8520,-0.359,-1.034,0.159,4.4,1.23,2.19,0.99,1.2,-1.65
2022-12-06 15:33:24.8620,0.118,-0.939,0.515,0.69,-0.08,-3.32,0.65,1.28,-1.32
2022-12-06 15:33:24.8720,0.44,-0.983,0.321,-3.62,-0.56,-4.45,0.53,1.09,-1.03
2022-12-06 15:33:24.8830,0.553,-1.102,0.211,-5.85,0.32,-2.07,0.49,0.75,-0.87
2022-12-06 15:33:24.8930,0.46,-1.133,0.306,-6.16,1.31,-2.07,0.33,0.33,-0.74
2022-12-06 15:33:24.9030,0.179,-1.068,0.22,-4.39,1.15,-2.64,0.23,-0.02,-0.6
2022-12-06 15:33:24.9130,-0.119,-1.007,0.004,-1.26,0.43,-0.97,0.24,-0.24,-0.52
2022-12-06 15:33:24.9220,-0.26,-0.993,-0.137,1.26,-0.02,0.97,0.28,-0.25,-0.6
2022-12-06 15:33:24.9330,-0.213,-0.99,-0.209,2.01,-0.02,2.18,0.41,0.03,-0.86
2022-12-06 15:33:24.9430,-0.094,-0.955,-0.208,1.13,-0.18,2.51,0.48,0.4,-0.99
2022-12-06 15:33:24.9530,-0.084,-0.905,-0.263,0.32,-0.59,2.76,0.66,0.6,-0.89
2022-12-06 15:33:24.9620,-0.181,-0.87,-0.19,0.82,-1.11,3.15,0.82,0.66,-0.88
2022-12-06 15:33:24.9730,-0.213,-0.932,0.036,1.84,-1.16,1.78,0.78,0.62,-0.98
2022-12-06 15:33:24.9830,-0.095,-1.059,0.186,1.67,-0.18,-0.35,0.66,0.44,-1.05
2022-12-06 15:33:24.9930,0.07,-1.114,0.175,0.28,0.95,-1.11,0.62,0.24,-1.02
2022-12-06 15:33:25.0030,0.152,-1.069,0.121,-1.08,1.07,-0.64,0.63,0.13,-0.97
2022-12-06 15:33:25.0130,0.078,-0.993,0.083,-1.23,0.44,-0.11,0.66,0.06,-0.91
2022-12-06 15:33:25.0220,-0.084,-0.957,0.03,0.05,-0.23,0.34,0.68,0.01,-0.93
2022-12-06 15:33:25.0330,-0.193,-0.975,-0.018,1.69,-0.33,1.0,0.73,0.09,-1.04
2022-12-06 15:33:25.0430,-0.211,-1.013,0.01,2.48,-0.05,1.27,0.73,0.21,-1.18
2022-12-06 15:33:25.0530,-0.182,-1.038,0.029,2.58,0.36,1.01,0.75,0.26,-1.29
2022-12-06 15:33:25.0620,-0.116,-1.02,0.06,2.27,0.44,0.89,0.76,0.22,-1.39
2022-12-06 15:33:25.0730,-0.041,-1.002,0.097,1.68,0.24,0.64,0.78,0.11,-1.45
2022-12-06 15:33:25.0830,0.008,-1.005,0.114,1.14,0.14,0.34,0.79,0.05,-1.49
2022-12-06 15:33:25.0920,0.026,-1.024,0.083,0.96,0.33,0.53,0.85,-0.01,-1.57
2022-12-06 15:33:25.1030,0.014,-1.008,0.065,1.0,0.41,0.79,0.89,-0.03,-1.63
2022-12-06 15:33:25.1130,-0.012,-1.009,0.033,1.41,0.27,1.19,0.92,0.06,-1.68
2022-12-06 15:33:25.1230,-0.018,-1.038,0.04,1.72,0.49,1.46,0.96,0.18,-1.69
2022-12-06 15:33:25.1330,-0.053,-1.057,0.034,2.02,0.79,1.48,1.01,0.18,-1.73
2022-12-06 15:33:25.1430,-0.103,-1.085,0.067,2.61,1.02,1.56,1.05,0.19,-1.82
2022-12-06 15:33:25.1530,-0.167,-1.125,0.091,3.3,1.45,1.28,1.11,0.17,-1.94
2022-12-06 15:33:25.1630,-0.25,-1.139,0.138,4.2,1.81,1.18,1.19,0.11,-2.06
2022-12-06 15:33:25.1730,-0.313,-1.166,0.196,5.2,2.02,0.69,1.27,0.07,-2.21
2022-12-06 15:33:25.1830,-0.312,-1.211,0.256,5.8,2.47,0.29,1.36,0.07,-2.35
2022-12-06 15:33:25.1930,-0.264,-1.252,0.298,5.8,3.04,-0.18,1.45,0.1,-2.49
2022-12-06 15:33:25.2030,-0.209,-1.244,0.289,5.46,3.39,-0.27,1.54,0.12,-2.58
2022-12-06 15:33:25.2130,-0.208,-1.216,0.264,5.3,3.3,0.06,1.63,0.09,-2.63
2022-12-06 15:33:25.2230,-0.262,-1.222,0.237,5.75,3.25,0.48,1.71,0.1,-2.68
2022-12-06 15:33:25.2330,-0.346,-1.268,0.209,6.65,3.61,0.86,1.79,0.19,-2.77
2022-12-06 15:33:25.2430,-0.417,-1.364,0.157,7.71,4.39,1.38,1.89,0.3,-2.82
2022-12-06 15:33:25.2530,-0.477,-1.541,0.084,8.54,5.76,2.15,1.99,0.43,-2.84
2022-12-06 15:33:25.2630,-0.571,-1.788,0.026,9.41,8.04,3.06,2.03,0.6,-2.82
2022-12-06 15:33:25.2730,-0.723,-1.98,-0.036,10.77,10.63,3.71,2.01,0.68,-2.83
2022-12-06 15:33:25.2830,-0.82,-2.036,-0.169,12.45,12.26,4.79,1.94,0.52,-3.02
2022-12-06 15:33:25.2930,-0.745,-1.901,-0.421,13.04,12.44,6.48,2.14,0.1,-3.46
2022-12-06 15:33:25.3030,-0.445,-1.767,-0.594,11.82,10.79,9.59,2.56,-0.04,-3.98
2022-12-06 15:33:25.3130,0.055,-2.033,-0.367,8.27,11.26,9.75,2.59,-0.18,-4.06
2022-12-06 15:33:25.3230,0.536,-2.293,-0.109,3.37,14.82,7.2,2.28,-0.63,-3.94
2022-12-06 15:33:25.3330,0.795,-2.25,0.042,-0.33,16.74,5.11,1.73,-1.08,-3.77
2022-12-06 15:33:25.3430,0.902,-1.877,0.089,-1.91,15.31,4.06,1.24,-1.08,-3.19
2022-12-06 15:33:25.3530,0.809,-1.38,0.075,-2.17,11.08,3.86,0.86,-0.46,-2.42
2022-12-06 15:33:25.3630,0.648,-1.112,0.056,-0.45,6.9,4.25,0.68,0.37,-1.71
2022-12-06 15:33:25.3730,0.578,-0.989,0.284,0.67,5.43,3.78,0.76,0.69,-1.25
2022-12-06 15:33:25.3830,0.415,-0.821,0.661,1.7,3.91,0.72,0.18,0.1,-0.71
2022-12-06 15:33:25.3930,0.248,-0.857,0.696,3.43,3.12,-2.35,-0.8,-0.57,0.11
2022-12-06 15:33:25.4030,0.077,-0.672,0.359,5.1,3.07,-0.92,-1.33,-0.53,0.8
2022-12-06 15:33:25.4130,0.032,-0.378,0.17,6.53,0.24,2.21,-1.66,-0.18,1.2
2022-12-06 15:33:25.4230,0.22,-0.233,0.109,6.02,-2.38,3.18,-1.89,0.06,1.58
2022-12-06 15:33:25.4330,0.494,-0.257,0.099,3.53,-3.34,3.62,-2.09,0.23,2.03
2022-12-06 15:33:25.4430,0.713,-0.35,0.204,0.83,-2.94,3.13,-2.43,0.46,2.53
2022-12-06 15:33:25.4530,0.843,-0.388,0.262,-1.2,-2.4,1.93,-2.8,0.68,3.11
2022-12-06 15:33:25.4630,0.836,-0.333,0.236,-2.29,-2.71,1.64,-3.09,0.71,3.76
2022-12-06 15:33:25.4730,0.662,-0.247,0.227,-1.85,-3.81,1.77,-3.28,0.79,4.36
2022-12-06 15:33:25.4830,0.414,-0.183,0.256,-0.08,-5.02,1.49,-3.41,0.94,4.84
2022-12-06 15:33:25.4930,0.173,-0.193,0.277,1.98,-5.82,0.98,-3.45,1.02,5.18
2022-12-06 15:33:25.5030,-0.034,-0.287,0.257,3.81,-5.76,0.71,-3.37,0.98,5.42
2022-12-06 15:33:25.5130,-0.207,-0.409,0.247,5.19,-5.02,0.75,-3.23,0.92,5.5
2022-12-06 15:33:25.5230,-0.32,-0.51,0.34,6.32,-4.17,0.31,-3.17,0.91,5.39
2022-12-06 15:33:25.5330,-0.268,-0.614,0.548,6.39,-3.54,-1.31,-3.31,0.85,5.24
2022-12-06 15:33:25.5430,-0.045,-0.779,0.722,4.7,-2.52,-3.83,-3.54,0.68,5.26
2022-12-06 15:33:25.5530,0.254,-0.903,0.647,1.61,-1.1,-4.97,-3.66,0.56,5.46
2022-12-06 15:33:25.5630,0.501,-0.903,0.434,-1.85,-0.52,-3.94,-3.61,0.64,5.76
2022-12-06 15:33:25.5730,0.521,-0.88,0.29,-4.17,-0.93,-2.01,-3.45,0.72,6.01
2022-12-06 15:33:25.5830,0.39,-0.964,0.417,-4.11,-0.95,-1.97,-3.38,0.87,6.12
2022-12-06 15:33:25.5930,0.334,-1.164,0.644,-3.56,0.3,-4.15,-3.42,1.13,6.14
2022-12-06 15:33:25.6030,0.318,-1.402,0.804,-3.91,2.56,-6.65,-3.53,1.47,6.03
2022-12-06 15:33:25.6130,0.258,-1.479,0.776,-4.17,4.56,-7.96,-3.59,1.72,5.75
2022-12-06 15:33:25.6230,0.255,-1.381,0.576,-4.2,4.66,-7.33,-3.42,1.71,5.45
2022-12-06 15:33:25.6330,0.331,-1.208,0.396,-5.04,3.4,-5.49,-3.06,1.57,5.24
2022-12-06 15:33:25.6430,0.399,-1.172,0.377,-6.32,2.05,-4.65,-2.61,1.56,4.9
2022-12-06 15:33:25.6530,0.457,-1.334,0.405,-7.3,2.8,-5.07,-2.13,1.72,4.24
2022-12-06 15:33:25.6630,0.526,-1.461,0.516,-8.3,4.67,-5.67,-1.64,1.82,3.38
2022-12-06 15:33:25.6730,0.586,-1.373,0.846,-9.16,5.43,-7.78,-1.32,1.52,2.53
2022-12-06 15:33:25.6830,0.748,-1.114,1.094,-10.15,3.79,-11.45,-1.1,0.68,1.71
2022-12-06 15:33:25.6930,1.042,-0.91,1.0,-12.41,1.35,-12.68,-0.74,-0.37,0.82
2022-12-06 15:33:25.7030,1.33,-0.824,0.802,-15.59,-0.18,-11.06,-0.23,-1.09,-0.13
2022-12-06 15:33:25.7130,1.341,-0.878,0.671,-17.7,-0.6,-9.25,0.29,-1.56,-1.02
2022-12-06 15:33:25.7230,0.967,-1.176,0.593,-16.2,0.75,-8.17,0.59,-1.97,-1.71
2022-12-06 15:33:25.7330,0.6,-1.485,0.605,-11.88,3.84,-7.31,0.54,-2.32,-2.23
2022-12-06 15:33:25.7430,0.075,-1.956,0.827,-8.36,7.29,-8.26,-0.43,-1.52,-2.09
2022-12-06 15:33:25.7530,-1.061,-1.949,0.302,-0.78,11.13,-9.6,-0.55,-0.08,-0.64
2022-12-06 15:33:25.7630,-2.201,-1.513,-0.839,11.48,8.52,0.63,0.9,-0.26,-0.6
2022-12-06 15:33:25.7730,-2.405,-1.45,-0.448,20.38,4.98,6.63,1.83,-1.04,-2.3
2022-12-06 15:33:25.7830,-1.296,-1.69,-0.01,17.41,5.82,0.82,1.94,-2.28,-3.77
2022-12-06 15:33:25.7930,0.216,-1.911,0.173,4.14,8.25,-1.36,2.16,-1.71,-4.3
2022-12-06 15:33:25.8030,1.355,-1.706,0.941,-9.6,9.31,-4.71,1.71,-0.49,-4.35
2022-12-06 15:33:25.8130,1.946,-1.031,1.407,-18.1,4.89,-12.77,0.57,-0.85,-3.62
2022-12-06 15:33:25.8230,2.009,-0.602,0.788,-22.01,-1.65,-13.11,-0.12,-1.38,-2.24
2022-12-06 15:33:25.8330,1.356,-0.613,0.03,-19.63,-4.1,-5.1,-0.07,-1.38,-1.26
2022-12-06 15:33:25.8430,0.557,-0.803,-0.258,-11.73,-3.03,0.68,0.39,-1.17,-1.03
2022-12-06 15:33:25.8530,-0.007,-1.004,-0.258,-4.65,-1.06,2.3,0.88,-0.55,-1.35
2022-12-06 15:33:25.8630,-0.338,-1.166,-0.065,0.35,0.8,1.53,0.95,0.17,-1.76
2022-12-06 15:33:25.8730,-0.278,-1.214,0.063,2.36,2.06,-0.36,0.84,0.5,-1.77
2022-12-06 15:33:25.8830,0.029,-1.097,0.116,0.77,1.88,-1.05,0.78,0.65,-1.58
2022-12-06 15:33:25.8930,0.369,-0.925,0.202,-2.41,0.29,-1.6,0.66,0.55,-1.35
2022-12-06 15:33:25.9030,0.628,-0.913,0.29,-5.43,-1.01,-2.49,0.49,0.28,-1.07
2022-12-06 15:33:25.9130,0.686,-1.05,0.278,-7.28,-0.41,-3.02,0.34,0.09,-0.79
2022-12-06 15:33:25.9230,0.491,-1.149,0.198,-6.8,1.0,-2.52,0.23,-0.08,-0.55
2022-12-06 15:33:25.9330,0.174,-1.112,0.11,-4.17,1.48,-1.66,0.17,-0.25,-0.42
2022-12-06 15:33:25.9430,-0.085,-1.02,0.006,-1.07,0.75,-0.72,0.2,-0.34,-0.42
2022-12-06 15:33:25.9530,-0.207,-0.972,-0.065,1.05,-0.04,0.29,0.26,-0.24,-0.53
2022-12-06 15:33:25.9630,-0.208,-0.96,-0.086,1.79,-0.34,0.78,0.3,0.03,-0.62
2022-12-06 15:33:25.9730,-0.161,-0.959,-0.083,1.6,-0.41,0.93,0.34,0.3,-0.67
2022-12-06 15:33:25.9830,-0.127,-0.963,-0.073,1.22,-0.39,0.87,0.39,0.5,-0.69
2022-12-06 15:33:25.9930,-0.101,-0.965,-0.073,1.0,-0.36,0.84,0.46,0.61,-0.72
2022-12-06 15:33:26.0030,-0.093,-0.975,-0.044,0.86,-0.33,0.88,0.51,0.57,-0.77
2022-12-06 15:33:26.0130,-0.086,-1.008,0.039,0.91,-0.16,0.36,0.48,0.45,-0.81
2022-12-06 15:33:26.0230,-0.049,-1.061,0.07,0.81,0.27,-0.34,0.44,0.3,-0.82
2022-12-06 15:33:26.0330,-0.021,-1.066,-0.001,0.49,0.71,-0.18,0.46,0.19,-0.84
2022-12-06 15:33:26.0430,-0.072,-1.008,-0.043,0.53,0.48,0.63,0.48,0.19,-0.87
2022-12-06 15:33:26.0530,-0.174,-0.969,-0.052,1.4,-0.12,0.83,0.51,0.26,-0.92
2022-12-06 15:33:26.0630,-0.247,-0.981,-0.086,2.46,-0.28,1.12,0.56,0.41,-1.02
2022-12-06 15:33:26.0730,-0.268,-1.006,-0.051,3.09,-0.08,1.34,0.59,0.56,-1.17
2022-12-06 15:33:26.0830,-0.224,-1.032,-0.007,3.21,0.2,0.87,0.61,0.62,-1.32
2022-12-06 15:33:26.0930,-0.13,-1.053,0.006,2.64,0.45,0.67,0.64,0.61,-1.41
2022-12-06 15:33:26.1030,-0.076,-1.049,0.011,1.9,0.6,0.64,0.68,0.58,-1.47
2022-12-06 15:33:26.1130,-0.087,-1.025,0.025,1.78,0.49,0.61,0.71,0.55,-1.53
2022-12-06 15:33:26.1230,-0.11,-0.982,-0.002,2.16,0.22,0.7,0.76,0.58,-1.64
2022-12-06 15:33:26.1330,-0.094,-0.945,0.009,2.43,-0.22,1.03,0.81,0.6,-1.72
2022-12-06 15:33:26.1430,-0.033,-0.984,0.044,2.24,-0.34,0.76,0.88,0.65,-1.75
2022-12-06 15:33:26.1530,0.007,-1.091,0.085,1.8,0.4,0.63,0.94,0.63,-1.77
2022-12-06 15:33:26.1630,-0.007,-1.188,0.086,1.75,1.58,0.25,0.98,0.66,-1.83
2022-12-06 15:33:26.1730,-0.071,-1.154,0.06,2.27,2.15,0.7,1.05,0.57,-1.88
2022-12-06 15:33:26.1830,-0.148,-1.127,0.063,3.18,1.68,0.8,1.12,0.47,-1.96
2022-12-06 15:33:26.1930,-0.201,-1.169,0.05,4.03,1.74,1.03,1.2,0.41,-2.09
2022-12-06 15:33:26.2030,-0.266,-1.229,0.053,4.73,2.41,1.2,1.28,0.44,-2.23
2022-12-06 15:33:26.2130,-0.341,-1.235,0.083,5.66,2.89,1.24,1.36,0.43,-2.35
2022-12-06 15:33:26.2230,-0.379,-1.236,0.123,6.52,2.95,1.01,1.44,0.37,-2.51
2022-12-06 15:33:26.2330,-0.357,-1.258,0.187,6.91,3.16,0.71,1.52,0.34,-2.66
2022-12-06 15:33:26.2430,-0.337,-1.276,0.246,6.81,3.52,0.17,1.6,0.4,-2.78
2022-12-06 15:33:26.2530,-0.371,-1.27,0.293,7.05,3.75,-0.16,1.66,0.51,-2.89
2022-12-06 15:33:26.2630,-0.426,-1.282,0.282,7.78,3.83,-0.36,1.73,0.67,-2.97
2022-12-06 15:33:26.2730,-0.447,-1.389,0.196,8.44,4.37,0.25,1.82,0.79,-3.01
2022-12-06 15:33:26.2830,-0.459,-1.633,0.078,8.79,6.11,1.46,1.85,0.86,-3.01
2022-12-06 15:33:26.2930,-0.513,-1.902,0.011,9.24,9.0,2.69,1.8,0.84,-3.0
2022-12-06 15:33:26.3030,-0.599,-2.05,-0.14,10.15,11.49,3.54,1.74,0.88,-3.1
2022-12-06 15:33:26.3130,-0.65,-2.04,-0.295,11.2,12.63,5.72,1.75,0.72,-3.26
2022-12-06 15:33:26.3230,-0.592,-1.826,-0.251,11.5,12.01,6.32,1.77,0.22,-3.51
2022-12-06 15:33:26.3330,-0.496,-1.65,-0.484,11.05,9.79,6.88,2.0,-0.0,-3.87
2022-12-06 15:33:26.3430,-0.179,-1.788,-0.548,9.85,9.56,9.46,2.31,-0.04,-4.03
2022-12-06 15:33:26.3530,0.324,-1.953,-0.149,6.01,11.71,8.36,2.28,-0.24,-3.92
2022-12-06 15:33:26.3630,0.683,-2.043,0.24,1.53,13.41,3.99,1.64,-0.7,-3.62
2022-12-06 15:33:26.3730,0.775,-1.869,0.366,-0.77,13.93,1.08,0.72,-1.07,-2.98
2022-12-06 15:33:26.3830,0.641,-1.393,0.204,-0.56,11.04,0.91,-0.04,-1.0,-2.13
2022-12-06 15:33:26.3930,0.464,-0.997,-0.119,1.42,6.33,3.29,-0.33,-0.34,-1.3
2022-12-06 15:33:26.4030,0.437,-0.842,-0.178,2.61,3.54,6.0,-0.35,0.44,-0.68
2022-12-06 15:33:26.4130,0.372,-0.71,0.139,2.89,2.24,4.97,-0.75,0.79,-0.24
2022-12-06 15:33:26.4230,0.289,-0.724,0.372,3.57,1.29,1.52,-1.5,0.57,0.55
2022-12-06 15:33:26.4330,0.111,-0.681,0.277,4.6,1.56,0.48,-1.99,0.57,1.47
2022-12-06 15:33:26.4430,-0.052,-0.434,0.101,6.42,0.02,1.97,-2.24,0.77,2.12
2022-12-06 15:33:26.4530,-0.025,-0.244,-0.025,7.28,-2.71,3.4,-2.29,0.82,2.55
2022-12-06 15:33:26.4630,0.164,-0.237,-0.056,6.07,-4.23,4.41,-2.16,0.82,2.9
2022-12-06 15:33:26.4730,0.375,-0.406,0.113,3.8,-3.84,3.83,-2.27,1.0,3.21
2022-12-06 15:33:26.4830,0.587,-0.627,0.284,1.46,-2.08,1.77,-2.7,1.26,3.55
2022-12-06 15:33:26.4930,0.717,-0.711,0.285,-0.78,-0.54,0.51,-3.07,1.44,4.0
2022-12-06 15:33:26.5030,0.654,-0.637,0.222,-1.77,-0.75,0.85,-3.25,1.43,4.48
2022-12-06 15:33:26.5130,0.435,-0.55,0.216,-0.85,-2.02,1.05,-3.33,1.4,4.87
2022-12-06 15:33:26.5230,0.18,-0.524,0.242,1.12,-3.0,0.86,-3.39,1.47,5.11
2022-12-06 15:33:26.5330,-0.041,-0.558,0.453,3.06,-3.38,-0.18,-3.6,1.65,5.22
2022-12-06 15:33:26.5430,-0.194,-0.694,0.639,4.54,-2.96,-2.88,-3.79,1.7,5.27
2022-12-06 15:33:26.5530,-0.195,-0.843,0.587,5.08,-1.69,-4.09,-3.77,1.64,5.26
2022-12-06 15:33:26.5630,-0.019,-0.902,0.431,3.84,-0.69,-3.31,-3.55,1.66,5.2
2022-12-06 15:33:26.5730,0.148,-0.919,0.41,1.37,-0.62,-2.21,-3.37,1.75,5.16
2022-12-06 15:33:26.5830,0.286,-1.021,0.635,-0.48,-0.35,-3.35,-3.44,1.64,5.21
2022-12-06 15:33:26.5930,0.53,-1.219,0.862,-2.73,0.93,-6.22,-3.66,1.33,5.4
2022-12-06 15:33:26.6030,0.745,-1.429,0.903,-5.8,3.01,-8.19,-3.88,1.03,5.57
2022-12-06 15:33:26.6130,0.775,-1.506,0.795,-7.88,4.72,-8.31,-3.96,0.74,5.56
2022-12-06 15:33:26.6230,0.643,-1.397,0.677,-8.01,4.79,-7.44,-3.88,0.53,5.38
2022-12-06 15:33:26.6330,0.469,-1.136,0.559,-6.91,3.13,-6.76,-3.7,0.5,5.21
2022-12-06 15:33:26.6430,0.359,-0.885,0.385,-5.9,0.48,-5.76,-3.33,0.54,5.16
2022-12-06 15:33:26.6530,0.271,-0.874,0.227,-5.46,-1.22,-4.29,-2.75,0.75,5.02
2022-12-06 15:33:26.6630,0.163,-1.112,0.239,-5.01,-0.03,-3.41,-2.15,1.32,4.51
2022-12-06 15:33:26.6730,0.077,-1.346,0.504,-4.26,2.71,-4.79,-1.75,1.92,3.7
2022-12-06 15:33:26.6830,0.145,-1.433,0.823,-4.14,4.71,-8.07,-1.57,1.93,2.83
2022-12-06 15:33:26.6930,0.455,-1.341,1.009,-5.83,5.0,-11.07,-1.46,1.14,2.03
2022-12-06 15:33:26.7030,0.962,-1.131,1.004,-9.91,3.67,-12.34,-1.25,0.09,1.31
2022-12-06 15:33:26.7130,1.383,-0.877,0.88,-15.09,1.43,-11.81,-0.85,-0.77,0.67
2022-12-06 15:33:26.7230,1.404,-0.68,0.744,-18.06,-0.96,-10.48,-0.29,-1.41,0.13
2022-12-06 15:33:26.7330,1.039,-0.666,0.671,-16.67,-2.33,-9.26,0.3,-1.87,-0.46
2022-12-06 15:33:26.7430,0.614,-0.794,0.667,-12.35,-1.8,-8.72,0.78,-2.16,-1.23
2022-12-06 15:33:26.7530,0.5,-0.899,0.694,-8.97,-0.56,-8.65,1.11,-2.24,-2.04
2022-12-06 15:33:26.7630,0.587,-1.151,0.795,-8.98,0.33,-9.11,0.59,-2.54,-2.49
2022-12-06 15:33:26.7730,0.374,-1.844,0.619,-8.91,4.47,-9.17,-0.72,-2.71,-1.98
2022-12-06 15:33:26.7830,-0.544,-2.216,-0.043,-4.98,11.69,-6.14,-1.11,-0.96,-0.12
2022-12-06 15:33:26.7930,-2.245,-1.528,-1.059,8.12,10.83,2.34,0.28,-0.04,0.36
2022-12-06 15:33:26.8030,-2.646,-1.054,-1.011,22.5,3.43,10.63,1.86,-0.23,-1.37
2022-12-06 15:33:26.8130,-1.706,-1.276,0.057,19.82,1.3,4.43,2.28,-0.77,-3.34
2022-12-06 15:33:26.8230,-0.439,-1.832,0.52,9.6,5.18,-4.52,1.94,-1.69,-4.23
2022-12-06 15:33:26.8330,1.11,-2.183,0.602,-4.0,10.48,-6.33,1.66,-1.57,-3.77
2022-12-06 15:33:26.8430,1.829,-1.626,0.969,-17.34,10.99,-8.01,1.05,-0.9,-3.16
2022-12-06 15:33:26.8530,1.548,-0.794,0.974,-19.49,2.86,-11.11,0.36,-0.9,-2.62
2022-12-06 15:33:26.8630,1.042,-0.581,0.503,-15.15,-3.34,-8.82,0.03,-1.27,-1.92
2022-12-06 15:33:26.8730,0.52,-0.734,0.038,-9.81,-3.63,-3.86,-0.07,-1.85,-1.44
2022-12-06 15:33:26.8830,0.175,-1.037,-0.326,-4.92,-1.46,0.45,0.15,-2.26,-1.52
2022-12-06 15:33:26.8930,0.259,-1.247,-0.287,-2.85,1.48,2.97,0.51,-1.38,-1.95
2022-12-06 15:33:26.9030,0.442,-1.255,-0.011,-4.51,2.72,1.19,0.59,-0.1,-2.03
2022-12-06 15:33:26.9130,0.396,-1.137,0.028,-5.35,2.27,-0.99,0.54,0.42,-1.64
2022-12-06 15:33:26.9230,0.172,-0.879,-0.057,-3.97,0.56,-0.31,0.62,0.49,-1.28
2022-12-06 15:33:26.9330,-0.023,-0.715,0.055,-1.41,-2.07,-0.1,0.66,0.5,-1.17
2022-12-06 15:33:26.9430,-0.003,-0.855,0.211,-0.17,-2.59,-1.51,0.58,0.46,-1.16
2022-12-06 15:33:26.9530,0.12,-1.124,0.299,-0.77,-0.4,-2.84,0.38,0.45,-1.13
2022-12-06 15:33:26.9630,0.241,-1.263,0.255,-1.99,1.97,-3.22,0.22,0.36,-1.06
2022-12-06 15:33:26.9730,0.273,-1.203,0.146,-2.78,2.55,-2.37,0.12,0.21,-1.02
2022-12-06 15:33:26.9830,0.253,-1.057,0.046,-2.71,1.47,-1.33,0.07,0.11,-0.98
2022-12-06 15:33:26.9930,0.225,-0.95,-0.055,-2.41,0.09,-0.34,0.1,0.05,-0.85
2022-12-06 15:33:27.0030,0.144,-0.911,-0.127,-1.9,-0.71,0.63,0.19,0.1,-0.73
2022-12-06 15:33:27.0130,0.021,-0.93,-0.137,-0.82,-0.85,1.12,0.26,0.27,-0.68
2022-12-06 15:33:27.0230,-0.071,-0.964,-0.131,0.43,-0.57,1.12,0.33,0.44,-0.7
2022-12-06 15:33:27.0330,-0.096,-0.985,-0.121,1.15,-0.25,1.13,0.42,0.57,-0.75
2022-12-06 15:33:27.0430,-0.071,-0.993,-0.053,1.27,-0.11,0.89,0.46,0.63,-0.81
2022-12-06 15:33:27.0530,-0.011,-1.011,0.04,0.96,-0.02,0.12,0.42,0.61,-0.84
2022-12-06 15:33:27.0630,0.062,-1.055,0.078,0.39,0.25,-0.69,0.36,0.48,-0.84
2022-12-06 15:33:27.0730,0.112,-1.083,-0.018,-0.25,0.73,-0.5,0.39,0.29,-0.83
2022-12-06 15:33:27.0830,0.062,-1.041,-0.083,-0.34,0.74,0.57,0.44,0.19,-0.8
2022-12-06 15:33:27.0930,-0.076,-1.01,-0.101,0.6,0.24,0.99,0.47,0.23,-0.82
2022-12-06 15:33:27.1030,-0.243,-1.03,-0.119,2.24,0.18,1.23,0.49,0.35,-0.93
2022-12-06 15:33:27.1130,-0.352,-1.054,-0.061,3.85,0.43,1.22,0.5,0.41,-1.1
2022-12-06 15:33:27.1230,-0.35,-1.068,-0.035,4.65,0.66,0.68,0.52,0.53,-1.29
2022-12-06 15:33:27.1330,-0.285,-1.069,-0.002,4.41,0.75,0.59,0.54,0.68,-1.47
2022-12-06 15:33:27.1430,-0.213,-1.045,0.005,3.88,0.75,0.25,0.56,0.88,-1.63
2022-12-06 15:33:27.1530,-0.128,-0.954,-0.043,3.32,0.3,0.56,0.59,0.99,-1.76
2022-12-06 15:33:27.1630,0.005,-0.881,-0.062,2.51,-0.67,1.05,0.63,0.95,-1.85
2022-12-06 15:33:27.1730,0.175,-0.95,-0.079,1.18,-0.91,1.25,0.68,0.94,-1.87
2022-12-06 15:33:27.1830,0.253,-1.127,-0.047,-0.19,0.33,1.45,0.75,1.04,-1.77
2022-12-06 15:33:27.1930,0.116,-1.283,0.013,-0.05,2.18,0.97,0.8,1.18,-1.68
2022-12-06 15:33:27.2030,-0.135,-1.301,0.062,2.1,3.37,0.59,0.86,1.25,-1.74
2022-12-06 15:33:27.2130,-0.282,-1.198,0.089,4.57,3.01,0.2,0.91,1.25,-1.94
2022-12-06 15:33:27.2230,-0.253,-1.076,0.104,5.48,1.92,0.24,0.97,1.12,-2.11
2022-12-06 15:33:27.2330,-0.176,-1.008,0.142,5.04,0.89,0.02,1.02,0.85,-2.22
2022-12-06 15:33:27.2430,-0.14,-1.044,0.13,4.57,0.69,-0.02,1.07,0.62,-2.34
2022-12-06 15:33:27.2530,-0.174,-1.118,0.109,4.68,1.37,0.24,1.13,0.53,-2.44
2022-12-06 15:33:27.2630,-0.235,-1.186,0.088,5.45,2.2,0.63,1.2,0.57,-2.55
2022-12-06 15:33:27.2730,-0.254,-1.268,0.113,6.11,2.98,0.8,1.27,0.76,-2.66
2022-12-06 15:33:27.2830,-0.281,-1.332,0.145,6.49,3.97,0.64,1.33,0.98,-2.77
2022-12-06 15:33:27.2930,-0.32,-1.297,0.216,7.06,4.39,0.37,1.35,1.2,-2.87
2022-12-06 15:33:27.3030,-0.33,-1.226,0.221,7.6,3.94,-0.09,1.41,1.43,-3.0
2022-12-06 15:33:27.3130,-0.314,-1.213,0.175,7.78,3.52,0.39,1.51,1.6,-3.09
2022-12-06 15:33:27.3230,-0.341,-1.369,0.101,7.89,4.1,1.08,1.61,1.83,-3.2
2022-12-06 15:33:27.3330,-0.488,-1.636,-0.007,8.77,6.47,2.21,1.65,2.03,-3.16
2022-12-06 15:33:27.3430,-0.674,-1.773,0.002,10.73,9.01,3.23,1.66,1.81,-3.12
2022-12-06 15:33:27.3530,-0.696,-1.861,-0.052,12.41,10.14,3.21,1.69,1.4,-3.46
2022-12-06 15:33:27.3630,-0.422,-1.956,-0.192,11.72,11.41,4.44,1.79,0.86,-4.08
2022-12-06 15:33:27.3730,-0.106,-2.031,-0.472,8.78,12.47,6.36,2.03,0.63,-4.47
2022-12-06 15:33:27.3830,0.186,-2.105,-0.556,6.19,13.68,9.34,2.46,0.38,-4.43
2022-12-06 15:33:27.3940,0.532,-2.095,-0.111,3.39,14.43,8.22,2.5,-0.18,-4.18
2022-12-06 15:33:27.4040,0.768,-2.046,0.301,0.37,14.62,3.31,1.9,-0.9,-3.77
2022-12-06 15:33:27.4130,0.801,-1.797,0.393,-0.88,13.92,0.53,1.09,-1.21,-3.1
2022-12-06 15:33:27.4230,0.708,-1.376,0.258,-0.46,10.8,0.46,0.51,-0.62,-2.44
2022-12-06 15:33:27.4330,0.659,-1.178,0.108,0.71,7.25,2.42,0.27,0.48,-1.89
2022-12-06 15:33:27.4430,0.647,-1.005,0.344,0.82,6.22,2.67,0.23,1.15,-1.61
2022-12-06 15:33:27.4530,0.526,-0.817,0.751,1.39,4.0,-0.76,-0.6,0.68,-0.95
2022-12-06 15:33:27.4630,0.287,-0.763,0.718,2.95,3.1,-3.66,-1.36,0.3,0.03
2022-12-06 15:33:27.4730,-0.01,-0.466,0.435,5.7,1.68,-1.78,-1.76,0.49,0.78
2022-12-06 15:33:27.4830,-0.12,-0.171,0.348,8.12,-1.73,0.45,-2.08,0.74,1.34
2022-12-06 15:33:27.4930,-0.005,-0.045,0.274,8.12,-4.31,0.82,-2.26,0.73,1.87
2022-12-06 15:33:27.5030,0.194,-0.141,0.225,6.41,-4.95,1.7,-2.39,0.62,2.24
2022-12-06 15:33:27.5130,0.431,-0.358,0.352,4.19,-3.63,1.38,-2.77,0.72,2.5
2022-12-06 15:33:27.5230,0.707,-0.516,0.416,1.48,-1.79,-0.12,-3.29,0.87,2.87
2022-12-06 15:33:27.5330,0.869,-0.473,0.306,-1.29,-1.24,-0.15,-3.61,0.9,3.46
2022-12-06 15:33:27.5430,0.768,-0.307,0.227,-2.23,-2.65,0.89,-3.75,0.88,4.11
2022-12-06 15:33:27.5530,0.504,-0.155,0.265,-0.73,-4.74,0.99,-3.81,0.95,4.66
2022-12-06 15:33:27.5630,0.251,-0.101,0.325,1.57,-6.33,0.17,-3.79,1.08,5.1
2022-12-06 15:33:27.5730,0.04,-0.172,0.346,3.44,-6.79,-0.51,-3.65,1.15,5.46
2022-12-06 15:33:27.5830,-0.158,-0.315,0.387,4.99,-6.08,-0.9,-3.47,1.1,5.64
2022-12-06 15:33:27.5930,-0.261,-0.456,0.503,6.2,-4.99,-1.85,-3.37,1.02,5.68
2022-12-06 15:33:27.6030,-0.263,-0.597,0.682,6.26,-3.91,-3.45,-3.41,0.82,5.63
2022-12-06 15:33:27.6130,-0.129,-0.744,0.788,5.36,-2.74,-5.57,-3.43,0.49,5.6
2022-12-06 15:33:27.6230,0.12,-0.829,0.629,2.97,-1.63,-5.91,-3.29,0.36,5.7
2022-12-06 15:33:27.6330,0.327,-0.818,0.426,-0.09,-1.35,-4.17,-3.08,0.58,5.88
2022-12-06 15:33:27.6430,0.354,-0.842,0.392,-2.09,-1.7,-2.91,-2.95,0.75,6.03
2022-12-06 15:33:27.6530,0.342,-0.996,0.542,-2.51,-1.06,-3.61,-2.96,0.94,6.14
2022-12-06 15:33:27.6630,0.409,-1.192,0.691,-3.33,0.71,-5.71,-3.06,1.27,6.28
2022-12-06 15:33:27.6730,0.421,-1.301,0.625,-4.59,2.44,-6.74,-3.09,1.66,6.25
2022-12-06 15:33:27.6830,0.343,-1.268,0.474,-4.88,3.02,-5.86,-2.98,1.96,6.01
2022-12-06 15:33:27.6930,0.303,-1.2,0.383,-4.69,2.49,-4.78,-2.77,2.04,5.73
2022-12-06 15:33:27.7030,0.327,-1.245,0.429,-5.1,2.15,-4.72,-2.59,2.05,5.51
2022-12-06 15:33:27.7130,0.361,-1.496,0.423,-5.95,3.58,-5.51,-2.36,2.28,5.16
2022-12-06 15:33:27.7230,0.318,-1.703,0.326,-6.52,6.43,-5.31,-2.0,2.73,4.49
2022-12-06 15:33:27.7330,0.229,-1.632,0.358,-6.11,7.73,-4.7,-1.59,2.81,3.54
2022-12-06 15:33:27.7430,0.308,-1.366,0.682,-5.84,6.2,-6.42,-1.3,2.22,2.51
2022-12-06 15:33:27.7530,0.685,-1.151,0.959,-7.84,3.64,-10.15,-1.08,1.19,1.58
2022-12-06 15:33:27.7630,1.19,-1.032,0.91,-12.5,2.07,-11.84,-0.72,0.35,0.83
2022-12-06 15:33:27.7730,1.393,-0.928,0.725,-16.91,1.04,-10.57,-0.21,-0.33,0.17
2022-12-06 15:33:27.7830,1.111,-0.875,0.614,-17.0,0.12,-8.87,0.41,-0.99,-0.6
2022-12-06 15:33:27.7930,0.648,-1.018,0.666,-13.13,-0.05,-8.28,0.59,-1.69,-1.48
2022-12-06 15:33:27.8030,0.282,-1.46,0.58,-8.47,2.75,-8.48,0.73,-2.18,-2.18
2022-12-06 15:33:27.8130,0.028,-1.882,0.783,-5.76,6.96,-7.88,-0.03,-1.78,-2.24
2022-12-06 15:33:27.8230,-0.97,-1.953,0.575,-1.12,10.5,-10.34,-0.38,-0.07,-0.78
2022-12-06 15:33:27.8330,-2.339,-1.69,-0.746,11.37,9.14,-3.08,0.75,-0.9,-0.38
2022-12-06 15:33:27.8430,-2.523,-1.52,-0.852,22.43,6.92,8.22,1.96,-1.62,-2.28
2022-12-06 15:33:27.8530,-1.212,-1.175,0.233,17.75,4.7,3.19,1.96,-0.86,-4.0
2022-12-06 15:33:27.8630,0.2,-1.142,0.778,3.56,1.24,-7.02,1.38,-0.65,-4.47
2022-12-06 15:33:27.8730,1.381,-1.517,0.459,-8.88,3.28,-8.05,1.13,-1.22,-3.7
2022-12-06 15:33:27.8830,2.026,-1.317,0.353,-19.01,5.39,-4.74,0.82,-1.6,-2.61
2022-12-06 15:33:27.8930,1.812,-0.945,0.383,-21.73,1.69,-4.73,0.43,-1.51,-1.98
2022-12-06 15:33:27.9030,1.212,-0.901,0.158,-17.46,-0.88,-4.16,0.29,-1.41,-1.66
2022-12-06 15:33:27.9130,0.575,-1.002,-0.07,-11.0,-0.44,-1.37,0.51,-1.0,-1.45
2022-12-06 15:33:27.9230,0.067,-1.06,-0.108,-5.01,0.39,0.11,0.77,-0.23,-1.44
2022-12-06 15:33:27.9330,-0.266,-1.125,-0.081,-0.44,0.95,0.39,1.06,0.71,-1.71
2022-12-06 15:33:27.9430,-0.338,-1.129,0.086,2.13,1.4,-0.47,1.01,1.18,-1.94
2022-12-06 15:33:27.9530,-0.051,-1.063,0.125,1.82,1.16,-1.7,0.9,1.12,-1.84
2022-12-06 15:33:27.9630,0.436,-0.95,0.134,-2.01,0.24,-1.74,0.78,0.92,-1.48
2022-12-06 15:33:27.9730,0.689,-0.908,0.149,-6.18,-0.77,-1.77,0.64,0.68,-1.14
2022-12-06 15:33:27.9830,0.69,-0.979,0.205,-7.39,-0.71,-1.98,0.48,0.18,-0.88
2022-12-06 15:33:27.9930,0.554,-1.052,0.215,-6.82,0.11,-2.51,0.39,-0.34,-0.63
2022-12-06 15:33:28.0030,0.282,-1.081,0.078,-4.87,0.68,-2.05,0.32,-0.41,-0.5
2022-12-06 15:33:28.0130,-0.006,-1.044,-0.102,-1.92,0.75,-0.29,0.34,-0.2,-0.49
2022-12-06 15:33:28.0230,-0.222,-0.973,-0.163,0.73,0.15,1.16,0.41,-0.0,-0.52
2022-12-06 15:33:28.0330,-0.325,-0.948,-0.167,2.55,-0.43,1.46,0.5,0.17,-0.63
2022-12-06 15:33:28.0430,-0.291,-0.962,-0.135,3.11,-0.49,1.46,0.57,0.35,-0.76
2022-12-06 15:33:28.0530,-0.161,-0.989,-0.087,2.43,-0.28,1.06,0.62,0.44,-0.84
2022-12-06 15:33:28.0630,-0.022,-1.003,-0.05,1.08,-0.04,0.72,0.66,0.42,-0.86
2022-12-06 15:33:28.0730,0.061,-1.006,0.029,0.0,0.03,0.33,0.63,0.31,-0.82
2022-12-06 15:33:28.0830,0.113,-1.021,0.119,-0.61,0.09,-0.54,0.59,0.19,-0.73
2022-12-06 15:33:28.0930,0.096,-1.048,0.136,-0.85,0.31,-1.16,0.52,0.06,-0.69
2022-12-06 15:33:28.1030,0.032,-1.043,0.088,-0.36,0.51,-0.98,0.5,-0.01,-0.71
2022-12-06 15:33:28.1130,-0.047,-1.008,0.006,0.39,0.32,-0.31,0.53,0.05,-0.75
2022-12-06 15:33:28.1230,-0.146,-0.982,-0.046,1.32,-0.02,0.55,0.57,0.23,-0.83
2022-12-06 15:33:28.1330,-0.22,-0.974,-0.024,2.37,-0.2,0.78,0.57,0.44,-0.94
2022-12-06 15:33:28.1430,-0.203,-0.974,-0.014,2.9,-0.23,0.66,0.57,0.52,-1.05
2022-12-06 15:33:28.1530,-0.104,-0.996,0.034,2.5,-0.17,0.51,0.57,0.53,-1.15
2022-12-06 15:33:28.1630,0.031,-1.034,0.068,1.41,0.15,0.03,0.57,0.5,-1.19
2022-12-06 15:33:28.1730,0.076,-1.057,0.029,0.38,0.52,0.05,0.61,0.44,-1.18
2022-12-06 15:33:28.1830,-0.014,-1.07,-0.011,0.58,0.69,0.57,0.64,0.45,-1.2
2022-12-06 15:33:28.1930,-0.158,-1.069,-0.061,1.93,0.82,1.05,0.68,0.48,-1.34
2022-12-06 15:33:28.2030,-0.242,-1.038,-0.094,3.34,0.73,1.61,0.75,0.52,-1.5
2022-12-06 15:33:28.2130,-0.224,-1.022,-0.05,3.97,0.41,1.74,0.79,0.52,-1.64
2022-12-06 15:33:28.2230,-0.106,-1.043,-0.026,3.51,0.48,1.35,0.84,0.52,-1.74
2022-12-06 15:33:28.2330,-0.011,-1.075,-0.011,2.44,0.74,1.3,0.9,0.58,-1.79
2022-12-06 15:33:28.2430,-0.026,-1.131,-0.009,2.03,1.22,1.27,1.0,0.67,-1.81
2022-12-06 15:33:28.2530,-0.139,-1.173,0.047,2.77,1.77,1.3,1.09,0.65,-1.82
2022-12-06 15:33:28.2630,-0.263,-1.246,0.127,4.2,2.31,0.6,1.15,0.59,-1.96
2022-12-06 15:33:28.2730,-0.293,-1.276,0.128,5.36,3.08,0.24,1.23,0.58,-2.15
2022-12-06 15:33:28.2830,-0.253,-1.251,0.133,5.44,3.17,0.41,1.33,0.54,-2.26
2022-12-06 15:33:28.2930,-0.245,-1.227,0.116,5.33,2.98,0.54,1.42,0.5,-2.37
2022-12-06 15:33:28.3030,-0.259,-1.23,0.081,5.56,2.93,0.96,1.53,0.49,-2.48
2022-12-06 15:33:28.3130,-0.309,-1.238,0.078,6.02,3.14,1.38,1.61,0.46,-2.57
2022-12-06 15:33:28.3230,-0.351,-1.215,0.089,6.81,3.25,1.49,1.7,0.51,-2.71
2022-12-06 15:33:28.3330,-0.348,-1.198,0.118,7.25,3.1,1.48,1.79,0.62,-2.81
2022-12-06 15:33:28.3430,-0.342,-1.253,0.115,7.4,3.29,1.42,1.89,0.76,-2.88
2022-12-06 15:33:28.3530,-0.355,-1.406,0.061,7.63,4.38,1.86,1.98,0.82,-2.89
2022-12-06 15:33:28.3630,-0.426,-1.608,0.026,8.11,6.33,2.64,2.0,0.9,-2.91
2022-12-06 15:33:28.3730,-0.593,-1.752,0.05,9.36,8.44,2.88,1.92,1.08,-2.95
2022-12-06 15:33:28.3830,-0.745,-1.778,-0.051,11.41,9.6,3.1,1.9,1.07,-3.12
2022-12-06 15:33:28.3930,-0.645,-1.786,-0.161,12.37,9.87,4.79,2.04,0.85,-3.5
2022-12-06 15:33:28.4030,-0.42,-1.823,-0.171,10.73,10.36,5.17,2.03,0.55,-3.83
2022-12-06 15:33:28.4130,-0.299,-1.855,-0.546,9.24,10.9,6.83,2.09,0.16,-4.03
2022-12-06 15:33:28.4230,-0.036,-2.018,-0.551,8.07,12.01,10.37,2.24,-0.08,-4.15
2022-12-06 15:33:28.4330,0.362,-2.145,-0.055,5.04,14.02,8.06,2.09,-0.17,-4.14
2022-12-06 15:33:28.4440,0.596,-2.174,0.289,1.67,15.32,3.3,1.49,-0.35,-3.97
2022-12-06 15:33:28.4530,0.579,-1.912,0.32,0.6,15.08,1.14,0.68,-0.55,-3.35
2022-12-06 15:33:28.4630,0.403,-1.431,0.148,1.69,11.61,1.81,0.08,-0.12,-2.63
2022-12-06 15:33:28.4730,0.281,-1.049,-0.014,3.67,7.07,3.75,-0.17,0.95,-2.02
2022-12-06 15:33:28.4830,0.338,-0.903,0.113,4.14,4.42,4.58,-0.17,1.75,-1.54
2022-12-06 15:33:28.4930,0.323,-0.757,0.461,3.58,3.25,2.34,-0.5,1.66,-1.15
2022-12-06 15:33:28.5030,0.254,-0.754,0.628,4.07,2.18,-0.94,-1.35,1.04,-0.5
2022-12-06 15:33:28.5130,0.169,-0.658,0.422,4.75,2.28,-0.84,-1.89,0.86,0.25
2022-12-06 15:33:28.5230,0.109,-0.412,0.309,5.54,0.33,1.04,-2.24,0.94,0.8
2022-12-06 15:33:28.5330,0.204,-0.274,0.217,5.6,-2.02,1.92,-2.45,0.88,1.22
2022-12-06 15:33:28.5430,0.429,-0.293,0.209,3.94,-2.99,2.55,-2.64,0.52,1.6
2022-12-06 15:33:28.5530,0.686,-0.413,0.296,1.43,-2.54,2.07,-2.95,0.25,2.03
2022-12-06 15:33:28.5630,0.904,-0.474,0.349,-1.2,-1.65,1.01,-3.3,0.21,2.6
2022-12-06 15:33:28.5730,0.962,-0.411,0.323,-3.08,-1.88,0.64,-3.57,0.13,3.29
2022-12-06 15:33:28.5830,0.786,-0.306,0.312,-3.02,-3.1,0.71,-3.76,0.1,3.98
2022-12-06 15:33:28.5930,0.497,-0.24,0.332,-0.95,-4.46,0.39,-3.88,0.14,4.54
2022-12-06 15:33:28.6030,0.231,-0.254,0.327,1.54,-5.21,-0.04,-3.86,0.19,4.95
2022-12-06 15:33:28.6130,0.011,-0.339,0.293,3.6,-5.18,-0.1,-3.7,0.26,5.21
2022-12-06 15:33:28.6230,-0.132,-0.483,0.376,5.07,-4.47,-0.29,-3.53,0.31,5.42
2022-12-06 15:33:28.6330,-0.218,-0.596,0.572,5.77,-3.28,-2.02,-3.46,0.31,5.49
2022-12-06 15:33:28.6430,-0.159,-0.591,0.549,5.74,-3.01,-3.8,-3.32,0.45,5.46
2022-12-06 15:33:28.6530,-0.037,-0.63,0.312,4.16,-3.24,-2.76,-3.02,0.72,5.46
2022-12-06 15:33:28.6630,0.029,-0.699,0.215,2.69,-2.96,-0.77,-2.76,0.91,5.51
2022-12-06 15:33:28.6730,0.152,-0.897,0.429,1.43,-2.08,-1.23,-2.75,1.13,5.63
2022-12-06 15:33:28.6830,0.356,-1.155,0.771,-0.69,0.15,-4.4,-3.02,1.43,5.81
2022-12-06 15:33:28.6930,0.5,-1.313,0.887,-3.27,2.34,-7.58,-3.33,1.55,5.99
2022-12-06 15:33:28.7030,0.483,-1.358,0.737,-4.69,3.34,-7.81,-3.43,1.37,6.03
2022-12-06 15:33:28.7130,0.387,-1.315,0.659,-4.67,3.47,-6.51,-3.37,1.04,5.87
2022-12-06 15:33:28.7230,0.349,-1.229,0.818,-4.35,2.77,-7.05,-3.42,0.61,5.57
2022-12-06 15:33:28.7330,0.481,-1.197,0.868,-5.06,2.18,-9.08,-3.48,0.01,5.34
2022-12-06 15:33:28.7430,0.719,-1.207,0.616,-7.49,2.14,-8.68,-3.27,-0.42,5.28
2022-12-06 15:33:28.7530,0.777,-1.272,0.366,-10.0,2.54,-6.07,-2.86,-0.45,5.15
2022-12-06 15:33:28.7630,0.578,-1.353,0.288,-9.98,3.57,-4.54,-2.37,-0.06,4.77
2022-12-06 15:33:28.7740,0.288,-1.281,0.322,-7.91,4.1,-4.38,-1.86,0.26,4.11
2022-12-06 15:33:28.7830,0.106,-1.123,0.506,-5.53,3.02,-5.46,-1.43,0.16,3.2
2022-12-06 15:33:28.7930,0.234,-1.05,0.704,-5.0,1.8,-7.64,-1.11,-0.32,2.12
2022-12-06 15:33:28.8030,0.657,-1.062,0.785,-7.7,1.58,-9.29,-0.81,-0.83,1.09
2022-12-06 15:33:28.8130,1.078,-1.025,0.782,-12.34,1.74,-9.76,-0.49,-1.25,0.2
2022-12-06 15:33:28.8230,1.207,-0.892,0.671,-15.68,0.98,-9.35,-0.04,-1.61,-0.56
2022-12-06 15:33:28.8330,0.996,-0.757,0.514,-15.48,-0.51,-7.83,0.55,-1.93,-1.36
2022-12-06 15:33:28.8430,0.679,-0.91,0.535,-12.73,-1.43,-6.65,0.57,-2.42,-2.09
2022-12-06 15:33:28.8530,0.414,-1.482,0.516,-9.32,2.0,-6.76,0.35,-2.75,-2.47
2022-12-06 15:33:28.8630,0.035,-1.993,0.658,-7.15,7.77,-6.93,-0.62,-1.45,-1.88
2022-12-06 15:33:28.8730,-1.233,-1.946,0.007,-0.15,11.13,-7.44,-0.63,-0.1,-0.37
2022-12-06 15:33:28.8830,-2.384,-1.599,-1.048,13.74,8.72,3.87,1.04,-0.11,-0.81
2022-12-06 15:33:28.8930,-2.383,-1.649,-0.346,21.29,6.17,7.56,2.37,-0.02,-2.82
2022-12-06 15:33:28.9030,-1.344,-1.75,0.411,17.47,7.71,-1.05,2.27,-0.78,-4.33
2022-12-06 15:33:28.9130,0.16,-1.691,0.627,4.85,7.5,-6.4,1.84,-1.05,-4.45
2022-12-06 15:33:28.9230,1.283,-1.462,0.856,-8.69,6.8,-7.25,1.4,-0.44,-4.24
2022-12-06 15:33:28.9330,1.974,-0.85,1.11,-17.42,2.61,-10.49,0.55,-0.43,-3.81
2022-12-06 15:33:28.9430,2.226,-0.597,0.638,-22.7,-2.97,-10.61,-0.15,-0.93,-2.58
2022-12-06 15:33:28.9530,1.644,-0.772,-0.09,-22.03,-3.42,-3.92,-0.1,-1.43,-1.53
2022-12-06 15:33:28.9630,0.794,-0.921,-0.324,-14.06,-1.46,1.86,0.34,-1.41,-1.29
2022-12-06 15:33:28.9730,0.266,-1.025,-0.211,-6.61,-0.34,2.4,0.64,-0.7,-1.45
2022-12-06 15:33:28.9830,-0.046,-1.115,-0.119,-2.3,0.73,1.14,0.73,-0.07,-1.53
2022-12-06 15:33:28.9930,-0.156,-1.061,-0.103,0.27,1.17,0.8,0.85,0.18,-1.44
2022-12-06 15:33:29.0030,-0.066,-0.921,0.035,0.61,0.07,0.37,0.89,0.29,-1.32
2022-12-06 15:33:29.0130,0.09,-0.949,0.23,-0.46,-0.91,-1.27,0.77,0.39,-1.27
2022-12-06 15:33:29.0230,0.303,-1.096,0.345,-2.11,0.01,-2.96,0.57,0.41,-1.15
2022-12-06 15:33:29.0330,0.434,-1.196,0.317,-4.01,1.42,-3.52,0.37,0.39,-0.96
2022-12-06 15:33:29.0430,0.376,-1.165,0.212,-4.5,1.97,-2.8,0.24,0.25,-0.81
2022-12-06 15:33:29.0530,0.259,-1.053,0.101,-3.44,1.23,-1.71,0.18,0.07,-0.7
2022-12-06 15:33:29.0630,0.159,-0.974,-0.016,-2.28,0.15,-0.56,0.23,0.02,-0.63
2022-12-06 15:33:29.0730,0.071,-0.955,-0.079,-1.29,-0.38,0.5,0.31,0.09,-0.58
2022-12-06 15:33:29.0830,-0.004,-0.965,-0.072,-0.41,-0.44,0.84,0.36,0.21,-0.54
2022-12-06 15:33:29.0930,-0.049,-0.981,-0.059,0.3,-0.28,0.73,0.41,0.32,-0.54
2022-12-06 15:33:29.1030,-0.045,-0.99,-0.067,0.62,-0.15,0.69,0.49,0.43,-0.57
2022-12-06 15:33:29.1130,-0.023,-0.988,-0.056,0.5,-0.09,0.89,0.55,0.53,-0.61
2022-12-06 15:33:29.1230,-0.019,-0.994,0.047,0.41,-0.13,0.45,0.53,0.52,-0.61
2022-12-06 15:33:29.1330,-0.002,-1.042,0.125,0.43,0.08,-0.57,0.45,0.43,-0.62
2022-12-06 15:33:29.1430,0.021,-1.067,0.073,0.25,0.6,-0.86,0.42,0.32,-0.64
2022-12-06 15:33:29.1530,-0.003,-1.017,-0.008,0.2,0.54,0.02,0.45,0.23,-0.63
2022-12-06 15:33:29.1630,-0.092,-0.974,-0.035,0.75,-0.03,0.62,0.46,0.24,-0.65
2022-12-06 15:33:29.1730,-0.19,-0.972,-0.06,1.84,-0.28,0.89,0.48,0.26,-0.72
2022-12-06 15:33:29.1830,-0.242,-1.001,-0.05,2.71,-0.18,1.12,0.5,0.32,-0.84
2022-12-06 15:33:29.1930,-0.231,-1.032,-0.014,3.1,0.18,0.92,0.51,0.4,-0.98
2022-12-06 15:33:29.2030,-0.191,-1.032,0.014,2.89,0.39,0.63,0.51,0.45,-1.09
2022-12-06 15:33:29.2130,-0.164,-1.01,0.019,2.64,0.31,0.49,0.54,0.47,-1.18
2022-12-06 15:33:29.2230,-0.154,-0.99,-0.003,2.55,0.07,0.59,0.6,0.49,-1.3
2022-12-06 15:33:29.2330,-0.168,-0.964,-0.002,2.67,-0.07,0.87,0.62,0.49,-1.43
2022-12-06 15:33:29.2430,-0.164,-0.907,-0.013,2.96,-0.42,0.85,0.66,0.43,-1.56
2022-12-06 15:33:29.2530,-0.088,-0.884,0.004,2.84,-0.97,1.09,0.69,0.36,-1.66
2022-12-06 15:33:29.2630,0.04,-0.999,0.049,1.98,-0.68,0.73,0.72,0.38,-1.69
2022-12-06 15:33:29.2730,0.111,-1.128,0.042,0.95,0.76,0.6,0.77,0.51,-1.69
2022-12-06 15:33:29.2830,0.058,-1.167,0.073,0.85,1.75,0.68,0.83,0.66,-1.65
2022-12-06 15:33:29.2930,-0.065,-1.159,0.117,1.92,1.91,0.37,0.88,0.63,-1.67
2022-12-06 15:33:29.3040,-0.134,-1.161,0.11,3.18,1.91,0.15,0.95,0.62,-1.82
2022-12-06 15:33:29.3130,-0.142,-1.134,0.114,3.74,1.91,0.44,1.03,0.49,-1.9
2022-12-06 15:33:29.3230,-0.175,-1.151,0.111,3.98,1.76,0.36,1.11,0.39,-2.01
2022-12-06 15:33:29.3330,-0.248,-1.18,0.088,4.69,2.15,0.75,1.18,0.3,-2.16
2022-12-06 15:33:29.3430,-0.299,-1.198,0.12,5.59,2.43,0.86,1.25,0.25,-2.31
2022-12-06 15:33:29.3530,-0.3,-1.22,0.169,6.12,2.73,0.56,1.33,0.31,-2.48
2022-12-06 15:33:29.3630,-0.264,-1.247,0.207,6.19,3.08,0.31,1.42,0.37,-2.6
2022-12-06 15:33:29.3730,-0.233,-1.269,0.291,6.05,3.44,-0.16,1.46,0.44,-2.7
2022-12-06 15:33:29.3830,-0.19,-1.262,0.327,5.95,3.73,-0.7,1.51,0.56,-2.76
2022-12-06 15:33:29.3930,-0.176,-1.242,0.299,5.79,3.7,-0.71,1.6,0.75,-2.79
2022-12-06 15:33:29.4030,-0.223,-1.3,0.188,6.08,3.82,0.09,1.73,0.94,-2.74
2022-12-06 15:33:29.4130,-0.327,-1.496,0.117,6.96,5.06,1.41,1.81,1.02,-2.66
2022-12-06 15:33:29.4230,-0.485,-1.722,0.186,8.36,7.51,1.77,1.77,1.08,-2.65
2022-12-06 15:33:29.4340,-0.639,-1.767,0.15,10.23,9.4,1.25,1.65,0.98,-2.82
2022-12-06 15:33:29.4430,-0.598,-1.727,-0.096,11.45,9.45,2.75,1.62,0.65,-3.07
2022-12-06 15:33:29.4540,-0.385,-1.677,-0.188,10.33,9.37,5.15,1.65,0.25,-3.23
2022-12-06 15:33:29.4630,-0.302,-1.53,-0.42,8.78,8.71,5.92,1.84,-0.09,-3.49
2022-12-06 15:33:29.4730,-0.052,-1.565,-0.566,8.24,7.71,9.17,2.31,-0.48,-3.87
2022-12-06 15:33:29.4830,0.474,-2.0,-0.116,4.68,9.96,8.26,2.23,-0.72,-3.99
2022-12-06 15:33:29.4930,0.814,-2.36,0.203,-0.02,15.1,3.51,1.66,-0.78,-3.63
2022-12-06 15:33:29.5040,0.7,-2.061,0.147,-1.54,16.8,2.01,1.04,-1.07,-2.95
2022-12-06 15:33:29.5130,0.355,-1.464,0.022,1.15,12.11,3.13,0.52,-1.24,-2.29
2022-12-06 15:33:29.5240,0.167,-1.089,-0.074,4.41,7.03,4.11,0.11,-0.79,-1.69
2022-12-06 15:33:29.5330,0.187,-0.926,-0.143,5.52,4.29,5.12,-0.02,0.22,-1.09
2022-12-06 15:33:29.5440,0.222,-0.841,0.017,4.99,3.38,5.1,-0.09,1.06,-0.7
2022-12-06 15:33:29.5540,0.189,-0.7,0.294,5.01,2.22,2.83,-0.6,1.28,-0.3
2022-12-06 15:33:29.5630,0.158,-0.648,0.322,5.24,1.16,0.72,-1.11,1.12,0.39
2022-12-06 15:33:29.5730,0.084,-0.507,0.149,5.64,0.45,1.57,-1.34,1.18,1.08
2022-12-06 15:33:29.5830,0.072,-0.309,0.101,6.21,-1.5,3.05,-1.47,1.33,1.61
2022-12-06 15:33:29.5940,0.215,-0.222,0.113,5.6,-3.35,3.08,-1.52,1.36,2.04
2022-12-06 15:33:29.6040,0.429,-0.303,0.151,3.6,-3.8,2.97,-1.61,1.27,2.45
2022-12-06 15:33:29.6140,0.623,-0.509,0.244,1.32,-2.67,2.3,-1.93,1.19,2.84
2022-12-06 15:33:29.6240,0.773,-0.652,0.253,-0.7,-0.86,1.46,-2.32,1.12,3.28
2022-12-06 15:33:29.6340,0.798,-0.603,0.207,-2.12,-0.47,1.68,-2.59,1.01,3.77
2022-12-06 15:33:29.6440,0.633,-0.478,0.198,-1.95,-1.74,1.83,-2.78,0.94,4.24
2022-12-06 15:33:29.6540,0.386,-0.414,0.191,-0.22,-3.2,1.78,-2.91,0.92,4.61
2022-12-06 15:33:29.6640,0.174,-0.465,0.279,1.79,-3.77,1.48,-3.03,0.84,4.92
2022-12-06 15:33:29.6740,0.026,-0.601,0.48,3.17,-3.14,-0.19,-3.18,0.61,5.11
2022-12-06 15:33:29.6830,-0.033,-0.65,0.503,3.98,-2.33,-2.14,-3.2,0.39,5.12
2022-12-06 15:33:29.6940,0.054,-0.699,0.326,3.51,-2.25,-1.53,-3.05,0.5,5.1
2022-12-06 15:33:29.7040,0.16,-0.754,0.246,1.97,-1.99,-0.26,-2.9,0.74,5.12
2022-12-06 15:33:29.7140,0.273,-0.873,0.343,0.5,-1.48,-0.17,-2.92,0.76,5.19
2022-12-06 15:33:29.7230,0.471,-1.043,0.636,-1.36,-0.26,-2.45,-3.2,0.65,5.33
2022-12-06 15:33:29.7330,0.696,-1.192,0.646,-4.11,1.3,-5.02,-3.45,0.76,5.49
2022-12-06 15:33:29.7440,0.753,-1.241,0.466,-6.42,2.32,-4.29,-3.54,0.78,5.59
2022-12-06 15:33:29.7540,0.631,-1.243,0.383,-6.77,2.43,-3.07,-3.51,0.59,5.59
2022-12-06 15:33:29.7640,0.462,-1.225,0.381,-5.77,2.38,-3.0,-3.42,0.46,5.42
2022-12-06 15:33:29.7740,0.346,-1.166,0.369,-4.78,2.09,-3.38,-3.31,0.52,5.17
2022-12-06 15:33:29.7840,0.315,-1.066,0.31,-4.45,1.36,-3.41,-3.15,0.65,5.04
2022-12-06 15:33:29.7940,0.31,-0.986,0.234,-4.83,0.41,-3.02,-2.9,0.83,5.04
2022-12-06 15:33:29.8040,0.253,-1.039,0.202,-5.14,0.16,-2.66,-2.6,1.08,4.97
2022-12-06 15:33:29.8140,0.173,-1.17,0.241,-4.82,1.24,-2.88,-2.31,1.29,4.69
2022-12-06 15:33:29.8240,0.182,-1.305,0.351,-4.68,2.74,-3.74,-2.11,1.35,4.24
2022-12-06 15:33:29.8340,0.296,-1.406,0.465,-5.57,4.13,-5.25,-1.97,1.19,3.7
2022-12-06 15:33:29.8440,0.422,-1.454,0.594,-7.15,5.1,-6.44,-1.87,0.72,3.1
2022-12-06 15:33:29.8540,0.536,-1.406,0.704,-8.56,5.44,-8.1,-1.75,0.08,2.43
2022-12-06 15:33:29.8640,0.646,-1.201,0.65,-9.92,4.54,-8.72,-1.48,-0.49,1.73
2022-12-06 15:33:29.8740,0.651,-0.937,0.517,-10.86,2.2,-7.87,-1.01,-0.98,0.92
2022-12-06 15:33:29.8840,0.578,-0.772,0.402,-10.58,-0.12,-6.52,-0.4,-1.38,0.0
2022-12-06 15:33:29.8940,0.514,-0.764,0.422,-9.82,-1.17,-5.76,0.16,-1.74,-0.93
2022-12-06 15:33:29.9040,0.542,-0.881,0.544,-9.36,-0.78,-6.35,0.55,-2.03,-1.79
2022-12-06 15:33:29.9130,0.64,-1.108,0.717,-9.99,0.56,-7.61,0.5,-2.42,-2.34
2022-12-06 15:33:29.9240,0.536,-1.464,0.735,-10.18,3.43,-8.79,0.44,-2.77,-2.37
2022-12-06 15:33:29.9330,0.2,-1.783,0.885,-8.5,6.64,-9.06,-0.47,-2.6,-1.74
2022-12-06 15:33:29.9440,-0.825,-1.718,0.386,-2.72,9.14,-9.56,-0.58,-1.55,-0.45
2022-12-06 15:33:29.9530,-1.928,-1.26,-0.545,8.77,6.12,-1.0,0.58,-1.46,-0.41
2022-12-06 15:33:29.9640,-2.213,-1.238,-0.266,17.51,2.71,4.52,1.46,-1.63,-1.95
2022-12-06 15:33:29.9740,-1.422,-1.328,0.494,16.26,3.55,-1.31,1.36,-1.55,-3.4
2022-12-06 15:33:29.9830,-0.247,-1.491,0.697,6.35,4.04,-7.41,0.84,-1.52,-3.77
2022-12-06 15:33:29.9940,0.689,-1.732,0.329,-4.35,6.51,-6.4,0.66,-1.54,-3.37
2022-12-06 15:33:30.0040,1.212,-1.423,0.118,-11.84,7.03,-2.77,0.48,-1.57,-2.89
2022-12-06 15:33:30.0140,1.32,-1.0,0.016,-15.05,2.66,-1.29,0.41,-1.35,-2.55
2022-12-06 15:33:30.0240,1.147,-0.837,-0.042,-14.74,-0.65,-0.35,0.5,-0.99,-2.28
2022-12-06 15:33:30.0340,0.698,-0.862,-0.051,-11.84,-1.46,0.11,0.58,-0.69,-1.94
2022-12-06 15:33:30.0440,0.22,-0.944,-0.027,-6.62,-0.9,0.09,0.7,-0.34,-1.7
2022-12-06 15:33:30.0540,-0.003,-1.012,0.047,-2.66,-0.14,-0.17,0.81,0.37,-1.68
2022-12-06 15:33:30.0640,-0.096,-1.062,0.103,-0.95,0.42,-0.95,0.85,0.81,-1.76
2022-12-06 15:33:30.0740,-0.03,-1.071,0.162,-0.31,0.79,-1.23,0.79,0.69,-1.76
2022-12-06 15:33:30.0840,0.216,-1.024,0.298,-1.53,0.62,-2.14,0.58,0.38,-1.59
2022-12-06 15:33:30.0940,0.496,-1.017,0.283,-4.17,0.15,-3.13,0.39,0.06,-1.32
2022-12-06 15:33:30.1040,0.606,-1.055,0.184,-6.32,0.33,-2.32,0.32,-0.24,-1.1
2022-12-06 15:33:30.1140,0.52,-1.057,0.15,-6.53,0.63,-1.56,0.25,-0.47,-0.88
2022-12-06 15:33:30.1240,0.278,-1.038,0.096,-4.97,0.5,-1.25,0.19,-0.56,-0.7
2022-12-06 15:33:30.1340,-0.001,-1.031,-0.013,-2.22,0.36,-0.45,0.2,-0.45,-0.63
2022-12-06 15:33:30.1440,-0.217,-1.012,-0.096,0.42,0.26,0.64,0.29,-0.17,-0.68
2022-12-06 15:33:30.1540,-0.328,-0.982,-0.11,2.27,0.01,1.25,0.37,0.13,-0.8
2022-12-06 15:33:30.1640,-0.303,-0.956,-0.079,2.95,-0.28,1.19,0.44,0.39,-0.91
2022-12-06 15:33:30.1740,-0.161,-0.961,-0.042,2.32,-0.46,0.89,0.51,0.52,-0.98
2022-12-06 15:33:30.1840,0.0,-0.986,0.011,0.79,-0.29,0.56,0.56,0.51,-0.98
2022-12-06 15:33:30.1940,0.106,-1.013,0.116,-0.5,-0.06,-0.1,0.5,0.38,-0.92
2022-12-06 15:33:30.2040,0.156,-1.053,0.148,-1.26,0.29,-1.01,0.43,0.2,-0.82
2022-12-06 15:33:30.2140,0.122,-1.049,0.078,-1.39,0.59,-0.82,0.42,0.02,-0.76
2022-12-06 15:33:30.2240,0.023,-1.014,0.013,-0.7,0.36,0.01,0.45,-0.07,-0.74
2022-12-06 15:33:30.2340,-0.107,-1.008,-0.002,0.5,0.09,0.51,0.46,0.0,-0.79
2022-12-06 15:33:30.2440,-0.207,-1.009,-0.019,1.85,0.12,0.61,0.48,0.15,-0.89
2022-12-06 15:33:30.2540,-0.225,-0.987,-0.019,2.62,0.05,0.9,0.5,0.27,-1.0
2022-12-06 15:33:30.2640,-0.17,-0.974,0.009,2.62,-0.18,0.71,0.51,0.39,-1.09
2022-12-06 15:33:30.2740,-0.068,-0.988,0.022,1.95,-0.18,0.63,0.52,0.4,-1.15
2022-12-06 15:33:30.2840,0.021,-1.008,0.066,1.05,0.02,0.38,0.51,0.35,-1.18
2022-12-06 15:33:30.2940,0.052,-1.022,0.071,0.46,0.22,0.13,0.54,0.34,-1.2
2022-12-06 15:33:30.3040,0.013,-1.013,0.056,0.53,0.3,0.21,0.57,0.34,-1.22
2022-12-06 15:33:30.3140,-0.068,-0.991,0.029,1.26,0.15,0.52,0.61,0.41,-1.29
2022-12-06 15:33:30.3240,-0.12,-0.962,0.017,2.14,-0.05,0.79,0.65,0.52,-1.4
2022-12-06 15:33:30.3340,-0.104,-0.92,0.003,2.56,-0.36,0.94,0.69,0.63,-1.51
2022-12-06 15:33:30.3440,-0.025,-0.902,-0.019,2.26,-0.73,1.25,0.74,0.71,-1.59
2022-12-06 15:33:30.3540,0.042,-0.933,-0.002,1.59,-0.68,1.37,0.8,0.68,-1.6
2022-12-06 15:33:30.3640,0.048,-0.988,0.032,1.27,-0.22,1.28,0.85,0.53,-1.61
2022-12-06 15:33:30.3740,-0.0,-1.052,0.079,1.6,0.41,0.88,0.91,0.4,-1.67
2022-12-06 15:33:30.3840,-0.076,-1.1,0.079,2.34,1.04,0.74,0.97,0.29,-1.74
2022-12-06 15:33:30.3940,-0.156,-1.152,0.085,3.31,1.55,0.81,1.04,0.21,-1.84
2022-12-06 15:33:30.4040,-0.192,-1.213,0.083,4.15,2.18,0.91,1.11,0.17,-1.97
2022-12-06 15:33:30.4140,-0.187,-1.253,0.072,4.5,2.81,1.01,1.19,0.18,-2.09
2022-12-06 15:33:30.4240,-0.199,-1.263,0.078,4.62,3.15,1.3,1.28,0.21,-2.18
2022-12-06 15:33:30.4340,-0.234,-1.277,0.139,5.09,3.32,1.12,1.36,0.24,-2.3
2022-12-06 15:33:30.4440,-0.246,-1.287,0.216,5.58,3.58,0.56,1.44,0.32,-2.43
2022-12-06 15:33:30.4540,-0.235,-1.273,0.288,5.8,3.7,-0.06,1.52,0.4,-2.53
2022-12-06 15:33:30.4640,-0.207,-1.264,0.295,5.86,3.65,-0.47,1.62,0.45,-2.6
2022-12-06 15:33:30.4740,-0.177,-1.328,0.224,5.74,3.9,-0.04,1.74,0.49,-2.61
2022-12-06 15:33:30.4840,-0.217,-1.496,0.136,5.83,5.06,1.01,1.85,0.55,-2.58
2022-12-06 15:33:30.4940,-0.373,-1.688,0.156,6.83,7.12,1.72,1.87,0.69,-2.57
2022-12-06 15:33:30.5040,-0.584,-1.79,0.173,8.9,8.91,1.52,1.89,0.88,-2.71
2022-12-06 15:33:30.5140,-0.678,-1.813,0.178,10.95,9.77,1.69,1.94,1.12,-3.05
2022-12-06 15:33:30.5240,-0.577,-1.766,0.107,11.33,9.98,1.94,1.93,1.26,-3.43
2022-12-06 15:33:30.5340,-0.351,-1.628,-0.021,9.99,9.41,3.23,1.86,0.8,-3.67
2022-12-06 15:33:30.5440,-0.134,-1.565,-0.356,7.88,8.28,5.03,1.82,0.22,-3.6
2022-12-06 15:33:30.5540,0.046,-1.684,-0.613,6.22,8.7,9.06,1.92,-0.39,-3.29
2022-12-06 15:33:30.5640,0.207,-1.826,-0.377,4.73,10.41,9.8,2.01,-0.67,-3.2
2022-12-06 15:33:30.5740,0.35,-1.88,0.041,3.5,11.82,6.51,1.87,-0.51,-3.31
2022-12-06 15:33:30.5840,0.455,-1.823,0.349,2.34,12.23,2.55,1.23,-0.53,-3.08
2022-12-06 15:33:30.5940,0.399,-1.607,0.287,2.02,11.4,0.73,0.4,-0.65,-2.4
2022-12-06 15:33:30.6040,0.232,-1.228,-0.004,3.3,8.74,2.55,-0.1,-0.26,-1.63
2022-12-06 15:33:30.6140,0.161,-0.943,-0.209,4.89,5.07,5.42,-0.23,0.55,-1.01
2022-12-06 15:33:30.6240,0.149,-0.743,-0.083,5.21,2.95,6.41,-0.23,1.21,-0.75
2022-12-06 15:33:30.6340,0.188,-0.647,0.215,5.17,1.06,4.12,-0.69,1.19,-0.31
2022-12-06 15:33:30.6440,0.174,-0.733,0.249,4.73,1.06,1.85,-1.2,0.94,0.51
2022-12-06 15:33:30.6540,0.075,-0.623,0.105,5.24,1.37,2.55,-1.41,1.01,1.22
2022-12-06 15:33:30.6640,0.082,-0.425,0.061,5.92,-0.54,3.75,-1.53,1.13,1.66
2022-12-06 15:33:30.6740,0.257,-0.358,0.057,5.03,-2.32,3.86,-1.59,1.08,2.04
2022-12-06 15:33:30.6840,0.479,-0.462,0.096,2.78,-2.51,3.81,-1.74,1.04,2.46
2022-12-06 15:33:30.6940,0.637,-0.598,0.182,0.55,-1.38,3.09,-2.07,1.16,2.92
2022-12-06 15:33:30.7040,0.686,-0.618,0.224,-0.89,-0.65,2.29,-2.44,1.22,3.38
2022-12-06 15:33:30.7140,0.613,-0.558,0.201,-1.21,-1.18,1.98,-2.69,1.17,3.79
2022-12-06 15:33:30.7240,0.449,-0.509,0.199,-0.42,-2.1,2.23,-2.86,1.17,4.13
2022-12-06 15:33:30.7340,0.268,-0.509,0.351,0.99,-2.77,1.51,-3.1,1.17,4.42
2022-12-06 15:33:30.7440,0.143,-0.609,0.502,2.22,-2.76,-0.42,-3.34,1.08,4.71
2022-12-06 15:33:30.7540,0.056,-0.642,0.517,2.82,-1.99,-1.78,-3.46,0.87,4.81
2022-12-06 15:33:30.7640,0.055,-0.586,0.329,3.03,-2.6,-1.33,-3.31,0.87,4.77
2022-12-06 15:33:30.7740,0.096,-0.642,0.236,2.31,-3.03,0.32,-3.1,1.04,4.74
2022-12-06 15:33:30.7840,0.187,-0.766,0.383,1.41,-2.39,0.09,-3.06,0.96,4.83
2022-12-06 15:33:30.7940,0.398,-0.928,0.677,-0.42,-1.21,-2.38,-3.28,0.62,5.03
2022-12-06 15:33:30.8040,0.645,-1.1,0.786,-3.25,0.31,-5.32,-3.53,0.21,5.25
2022-12-06 15:33:30.8140,0.808,-1.207,0.646,-5.99,1.7,-5.55,-3.62,-0.27,5.4
2022-12-06 15:33:30.8240,0.815,-1.203,0.531,-7.57,2.27,-4.38,-3.57,-0.79,5.51
2022-12-06 15:33:30.8340,0.672,-1.108,0.487,-7.57,1.75,-3.93,-3.45,-1.21,5.54
2022-12-06 15:33:30.8440,0.476,-1.025,0.42,-6.35,0.73,-3.85,-3.24,-1.34,5.47
2022-12-06 15:33:30.8540,0.317,-0.976,0.314,-5.05,0.1,-3.28,-2.95,-1.16,5.38
2022-12-06 15:33:30.8640,0.171,-0.932,0.249,-4.1,-0.29,-2.59,-2.66,-0.77,5.31
2022-12-06 15:33:30.8740,0.019,-0.935,0.215,-3.16,-0.52,-2.39,-2.43,-0.34,5.24
2022-12-06 15:33:30.8840,-0.099,-0.986,0.168,-2.18,-0.17,-2.21,-2.2,0.14,5.07
2022-12-06 15:33:30.8940,-0.095,-1.096,0.174,-1.89,0.66,-2.07,-2.0,0.64,4.73
2022-12-06 15:33:30.9040,0.006,-1.297,0.268,-2.78,2.2,-2.63,-1.88,0.99,4.21
2022-12-06 15:33:30.9140,0.14,-1.546,0.417,-4.34,4.64,-4.03,-1.85,1.04,3.61
2022-12-06 15:33:30.9240,0.223,-1.648,0.584,-5.83,6.97,-5.86,-1.87,0.73,2.99
2022-12-06 15:33:30.9340,0.341,-1.479,0.581,-6.82,7.12,-7.29,-1.78,0.26,2.36
2022-12-06 15:33:30.9440,0.524,-1.133,0.387,-8.54,4.76,-6.56,-1.41,0.02,1.73
2022-12-06 15:33:30.9540,0.549,-0.816,0.201,-10.16,1.27,-4.54,-0.82,-0.1,0.99
2022-12-06 15:33:30.9640,0.419,-0.735,0.211,-9.66,-1.08,-3.31,-0.22,-0.41,0.13
2022-12-06 15:33:30.9740,0.364,-0.878,0.431,-8.42,-0.9,-4.33,0.16,-0.89,-0.78
2022-12-06 15:33:30.9840,0.512,-1.046,0.608,-8.53,0.8,-6.61,0.32,-1.32,-1.54
2022-12-06 15:33:30.9940,0.722,-1.112,0.625,-10.39,1.98,-7.55,0.34,-1.72,-2.07
2022-12-06 15:33:31.0040,0.671,-1.22,0.542,-11.63,2.59,-7.16,0.71,-2.1,-2.3
2022-12-06 15:33:31.0140,0.487,-1.273,0.871,-10.2,3.35,-6.95,0.78,-2.32,-2.31
2022-12-06 15:33:31.0240,-0.199,-1.465,1.249,-7.13,4.08,-11.76,-0.09,-1.77,-1.43
2022-12-06 15:33:31.0340,-1.309,-1.657,0.27,2.02,6.35,-11.14,0.14,-2.09,-0.58
2022-12-06 15:33:31.0440,-2.047,-1.649,-0.397,12.57,7.39,0.73,1.01,-2.51,-1.54
2022-12-06 15:33:31.0540,-1.677,-1.482,0.091,16.39,6.83,2.15,1.52,-1.52,-3.1
2022-12-06 15:33:31.0640,-0.695,-1.17,0.631,9.46,3.99,-3.79,1.2,-0.68,-3.77
2022-12-06 15:33:31.0740,0.061,-1.329,0.424,0.63,2.21,-6.72,0.74,-1.16,-3.62
2022-12-06 15:33:31.0840,0.705,-1.446,-0.046,-5.71,4.53,-2.42,0.59,-1.76,-3.28
2022-12-06 15:33:31.0940,1.266,-1.122,-0.111,-11.71,3.89,1.14,0.65,-1.23,-2.94
2022-12-06 15:33:31.1040,1.385,-0.784,0.077,-15.66,-0.11,0.29,0.6,-0.48,-2.55
2022-12-06 15:33:31.1140,1.092,-0.799,0.023,-14.79,-2.27,-0.81,0.69,-0.62,-2.05
2022-12-06 15:33:31.1240,0.615,-1.004,0.023,-10.81,-1.14,0.18,0.97,-0.7,-1.79
2022-12-06 15:33:31.1340,0.272,-1.177,0.174,-6.04,0.91,-0.53,1.07,-0.25,-1.78
2022-12-06 15:33:31.1440,0.105,-1.197,0.261,-3.36,2.13,-1.87,0.95,0.31,-1.8
2022-12-06 15:33:31.1540,0.04,-1.085,0.198,-1.89,1.67,-2.06,0.82,0.54,-1.76
2022-12-06 15:33:31.1640,0.099,-0.965,0.17,-1.51,0.43,-1.14,0.78,0.31,-1.67
2022-12-06 15:33:31.1740,0.31,-0.93,0.308,-2.5,-0.57,-1.54,0.65,0.04,-1.48
2022-12-06 15:33:31.1840,0.564,-1.017,0.417,-4.79,-0.43,-2.91,0.48,-0.18,-1.2
2022-12-06 15:33:31.1940,0.658,-1.112,0.421,-6.81,0.62,-3.6,0.32,-0.35,-0.91
2022-12-06 15:33:31.2040,0.504,-1.115,0.324,-6.72,1.26,-3.15,0.18,-0.43,-0.7
2022-12-06 15:33:31.2140,0.237,-1.052,0.187,-4.48,0.96,-2.04,0.11,-0.39,-0.57
2022-12-06 15:33:31.2240,0.006,-1.0,0.014,-1.86,0.31,-0.48,0.16,-0.18,-0.5
2022-12-06 15:33:31.2340,-0.178,-0.976,-0.065,0.29,-0.08,1.05,0.27,0.1,-0.54
2022-12-06 15:33:31.2440,-0.274,-0.961,-0.048,1.89,-0.27,1.38,0.36,0.34,-0.62
2022-12-06 15:33:31.2540,-0.254,-0.948,-0.028,2.47,-0.41,1.19,0.44,0.49,-0.72
2022-12-06 15:33:31.2640,-0.14,-0.955,0.004,1.94,-0.48,1.02,0.51,0.55,-0.79
2022-12-06 15:33:31.2740,-0.014,-0.983,0.068,0.72,-0.31,0.67,0.52,0.54,-0.78
2022-12-06 15:33:31.2840,0.047,-1.023,0.163,-0.22,0.0,-0.08,0.46,0.4,-0.71
2022-12-06 15:33:31.2940,0.072,-1.062,0.197,-0.58,0.44,-0.86,0.38,0.24,-0.65
2022-12-06 15:33:31.3040,0.045,-1.045,0.143,-0.63,0.68,-0.76,0.38,0.07,-0.63
2022-12-06 15:33:31.3140,-0.043,-0.996,0.1,-0.03,0.3,-0.2,0.38,0.02,-0.66
2022-12-06 15:33:31.3240,-0.148,-0.979,0.03,0.99,-0.09,0.37,0.43,0.11,-0.74
2022-12-06 15:33:31.3340,-0.225,-0.99,-0.008,2.07,-0.11,1.02,0.47,0.27,-0.85
2022-12-06 15:33:31.3440,-0.236,-0.995,-0.022,2.66,0.01,1.34,0.51,0.46,-0.96
2022-12-06 15:33:31.3540,-0.204,-0.994,0.01,2.69,0.02,1.39,0.51,0.52,-1.06
2022-12-06 15:33:31.3640,-0.113,-1.007,0.051,2.27,0.08,1.04,0.51,0.46,-1.14
2022-12-06 15:33:31.3740,0.002,-1.017,0.094,1.32,0.21,0.66,0.52,0.34,-1.16
2022-12-06 15:33:31.3840,0.071,-1.029,0.115,0.39,0.33,0.4,0.57,0.28,-1.15
2022-12-06 15:33:31.3940,0.048,-1.041,0.152,0.16,0.49,0.16,0.59,0.29,-1.16
2022-12-06 15:33:31.4040,-0.014,-1.014,0.124,0.72,0.53,0.06,0.64,0.31,-1.2
2022-12-06 15:33:31.4140,-0.055,-0.966,0.106,1.43,0.12,0.44,0.68,0.3,-1.25
2022-12-06 15:33:31.4240,-0.033,-0.958,0.072,1.74,-0.2,0.73,0.73,0.29,-1.3
2022-12-06 15:33:31.4340,0.017,-0.977,0.062,1.45,-0.13,1.06,0.78,0.27,-1.33
2022-12-06 15:33:31.4440,0.027,-1.015,0.047,1.17,0.17,1.22,0.84,0.21,-1.35
2022-12-06 15:33:31.4540,-0.034,-1.066,0.022,1.44,0.63,1.53,0.91,0.13,-1.39
2022-12-06 15:33:31.4640,-0.154,-1.121,0.02,2.45,1.22,1.78,1.0,0.09,-1.47
2022-12-06 15:33:31.4740,-0.264,-1.148,0.039,3.82,1.7,1.82,1.1,0.07,-1.6
2022-12-06 15:33:31.4840,-0.304,-1.189,0.036,4.81,2.03,1.76,1.21,0.11,-1.76
2022-12-06 15:33:31.4940,-0.315,-1.228,0.049,5.19,2.54,1.95,1.32,0.16,-1.91
2022-12-06 15:33:31.5040,-0.329,-1.238,0.066,5.49,2.91,1.84,1.41,0.18,-2.05
2022-12-06 15:33:31.5140,-0.323,-1.223,0.083,5.77,2.97,1.87,1.52,0.19,-2.18
2022-12-06 15:33:31.5240,-0.302,-1.235,0.11,5.82,2.96,1.78,1.64,0.2,-2.32
2022-12-06 15:33:31.5340,-0.286,-1.272,0.144,5.83,3.33,1.68,1.73,0.2,-2.43
2022-12-06 15:33:31.5440,-0.292,-1.28,0.19,5.94,3.77,1.42,1.8,0.2,-2.52
2022-12-06 15:33:31.5540,-0.307,-1.254,0.193,6.31,3.83,1.25,1.91,0.21,-2.62
2022-12-06 15:33:31.5640,-0.29,-1.3,0.164,6.56,3.83,1.53,1.99,0.23,-2.68
2022-12-06 15:33:31.5740,-0.294,-1.48,0.108,6.6,4.96,2.13,2.02,0.22,-2.68
2022-12-06 15:33:31.5840,-0.372,-1.693,0.095,7.09,7.2,2.77,1.97,0.27,-2.71
2022-12-06 15:33:31.5940,-0.52,-1.783,0.064,8.38,9.17,2.96,1.93,0.31,-2.76
2022-12-06 15:33:31.6040,-0.633,-1.779,-0.026,10.05,9.75,3.74,1.87,0.22,-2.84
2022-12-06 15:33:31.6140,-0.604,-1.723,-0.102,10.96,9.83,4.79,1.89,-0.04,-3.02
2022-12-06 15:33:31.6240,-0.433,-1.528,-0.21,10.27,8.93,5.47,2.04,-0.48,-3.36
2022-12-06 15:33:31.6340,-0.159,-1.541,-0.445,8.6,7.53,7.54,2.44,-0.73,-3.72
2022-12-06 15:33:31.6440,0.287,-1.888,-0.257,5.46,9.4,8.8,2.56,-0.81,-3.74
2022-12-06 15:33:31.6540,0.593,-2.164,0.085,1.46,13.46,5.86,2.27,-0.88,-3.44
2022-12-06 15:33:31.6640,0.596,-2.04,0.263,-0.19,15.13,3.04,1.65,-1.24,-2.97
2022-12-06 15:33:31.6740,0.399,-1.637,0.211,0.99,12.8,2.18,0.97,-1.24,-2.41
2022-12-06 15:33:31.6840,0.245,-1.236,0.117,3.19,8.78,3.08,0.47,-0.55,-1.79
2022-12-06 15:33:31.6940,0.212,-1.002,0.074,4.34,5.44,3.89,0.29,0.24,-1.18
2022-12-06 15:33:31.7040,0.202,-0.848,0.207,4.48,3.81,3.83,0.22,0.62,-0.83
2022-12-06 15:33:31.7140,0.189,-0.793,0.392,4.63,2.4,1.95,-0.45,0.5,-0.31
2022-12-06 15:33:31.7240,0.115,-0.816,0.289,4.84,2.56,1.13,-1.06,0.41,0.47
2022-12-06 15:33:31.7340,-0.01,-0.612,0.149,5.85,1.91,2.52,-1.42,0.6,1.07
2022-12-06 15:33:31.7440,0.003,-0.41,0.032,6.67,-0.6,3.8,-1.62,0.88,1.43
2022-12-06 15:33:31.7540,0.167,-0.365,0.004,5.74,-2.21,4.63,-1.76,1.04,1.76
2022-12-06 15:33:31.7640,0.373,-0.448,0.055,3.71,-2.29,4.54,-1.96,1.21,2.13
2022-12-06 15:33:31.7740,0.554,-0.537,0.136,1.52,-1.52,3.79,-2.23,1.45,2.57
2022-12-06 15:33:31.7840,0.646,-0.542,0.185,-0.25,-1.17,3.04,-2.48,1.59,3.05
2022-12-06 15:33:31.7940,0.61,-0.484,0.243,-0.97,-1.73,2.48,-2.7,1.58,3.52
2022-12-06 15:33:31.8040,0.486,-0.437,0.29,-0.54,-2.63,1.81,-2.86,1.53,3.93
2022-12-06 15:33:31.8140,0.324,-0.429,0.331,0.5,-3.28,1.27,-2.97,1.42,4.25
2022-12-06 15:33:31.8240,0.168,-0.487,0.417,1.75,-3.49,0.57,-3.12,1.21,4.51
2022-12-06 15:33:31.8340,0.083,-0.634,0.516,2.66,-2.87,-0.56,-3.27,0.9,4.73
2022-12-06 15:33:31.8440,0.077,-0.671,0.592,2.8,-1.83,-1.85,-3.42,0.58,4.8
2022-12-06 15:33:31.8540,0.196,-0.651,0.446,1.97,-2.29,-2.17,-3.41,0.47,4.83
2022-12-06 15:33:31.8640,0.311,-0.714,0.317,0.18,-2.39,-0.59,-3.33,0.49,4.93
2022-12-06 15:33:31.8740,0.388,-0.817,0.405,-1.19,-1.83,-0.46,-3.37,0.43,5.13
2022-12-06 15:33:31.8840,0.473,-0.947,0.597,-2.47,-0.88,-2.16,-3.54,0.22,5.37
2022-12-06 15:33:31.8940,0.513,-1.078,0.67,-3.73,0.29,-4.29,-3.7,0.05,5.55
2022-12-06 15:33:31.9040,0.47,-1.141,0.531,-4.37,1.28,-4.41,-3.71,-0.06,5.59
2022-12-06 15:33:31.9140,0.374,-1.155,0.445,-4.2,1.51,-3.28,-3.56,-0.21,5.51
2022-12-06 15:33:31.9240,0.323,-1.28,0.494,-3.87,1.88,-3.39,-3.39,-0.18,5.39
2022-12-06 15:33:31.9340,0.284,-1.424,0.521,-4.06,3.47,-4.27,-3.28,0.15,5.24
2022-12-06 15:33:31.9440,0.235,-1.343,0.466,-4.05,4.28,-4.6,-3.17,0.56,5.12
2022-12-06 15:33:31.9540,0.234,-1.153,0.342,-4.26,2.84,-4.0,-3.0,0.91,5.07
2022-12-06 15:33:31.9640,0.195,-1.049,0.266,-4.68,1.3,-3.21,-2.79,1.2,4.87
2022-12-06 15:33:31.9740,0.2,-1.076,0.212,-4.66,0.85,-2.85,-2.51,1.26,4.45
2022-12-06 15:33:31.9840,0.376,-1.261,0.256,-5.77,1.88,-2.8,-2.17,1.35,3.96
2022-12-06 15:33:31.9940,0.53,-1.431,0.471,-8.05,4.07,-4.12,-1.93,1.54,3.45
2022-12-06 15:33:32.0040,0.519,-1.41,0.768,-9.24,5.31,-6.9,-1.82,1.23,2.91
2022-12-06 15:33:32.0140,0.536,-1.215,0.928,-9.12,4.45,-9.82,-1.69,0.39,2.36
2022-12-06 15:33:32.0240,0.716,-0.999,0.826,-10.13,2.41,-10.57,-1.38,-0.47,1.73
2022-12-06 15:33:32.0340,0.888,-0.855,0.614,-12.26,0.59,-8.92,-0.88,-1.04,0.94
2022-12-06 15:33:32.0440,0.887,-0.82,0.537,-13.5,-0.43,-7.16,-0.33,-1.47,0.06
2022-12-06 15:33:32.0540,0.753,-0.898,0.631,-12.85,-0.29,-7.09,0.11,-2.0,-0.78
2022-12-06 15:33:32.0640,0.672,-0.988,0.721,-11.47,0.57,-8.05,0.39,-2.59,-1.56
2022-12-06 15:33:32.0740,0.602,-1.22,0.736,-10.92,1.55,-8.72,0.31,-3.05,-2.06
2022-12-06 15:33:32.0840,0.449,-1.5,0.71,-9.54,4.37,-7.93,0.05,-3.59,-2.11
2022-12-06 15:33:32.0940,0.007,-1.698,0.867,-7.74,6.82,-8.75,-0.69,-2.91,-1.18
2022-12-06 15:33:32.1040,-1.109,-1.502,0.17,-0.55,7.56,-8.39,-0.33,-2.27,0.17
2022-12-06 15:33:32.1140,-2.118,-1.274,-0.577,11.1,4.67,1.67,1.0,-2.3,-0.49
2022-12-06 15:33:32.1240,-2.231,-1.325,0.129,18.38,3.67,3.56,1.66,-1.5,-2.34
2022-12-06 15:33:32.1340,-1.49,-1.292,0.914,16.0,3.91,-5.35,1.26,-0.82,-3.52
2022-12-06 15:33:32.1440,-0.573,-1.51,0.756,7.59,3.89,-9.91,0.82,-0.94,-3.61
2022-12-06 15:33:32.1540,0.194,-1.621,0.203,-0.44,6.55,-5.43,0.6,-1.36,-3.45
2022-12-06 15:33:32.1640,0.962,-1.227,0.033,-7.64,5.43,-1.1,0.35,-1.25,-3.17
2022-12-06 15:33:32.1740,1.399,-0.866,-0.009,-14.27,0.9,-0.34,0.23,-0.76,-2.73
2022-12-06 15:33:32.1840,1.281,-0.888,-0.2,-16.16,-1.39,0.55,0.43,-0.71,-2.27
2022-12-06 15:33:32.1940,0.855,-1.027,-0.292,-13.33,-0.24,2.69,0.76,-0.9,-1.9
2022-12-06 15:33:32.2040,0.412,-0.995,-0.095,-8.56,0.5,2.4,0.9,-0.66,-1.71
2022-12-06 15:33:32.2140,0.076,-0.95,0.04,-4.47,-0.16,0.45,0.99,-0.16,-1.71
2022-12-06 15:33:32.2240,-0.138,-0.98,0.162,-1.38,-0.3,-0.39,1.1,0.28,-1.77
2022-12-06 15:33:32.2340,-0.169,-1.031,0.362,0.29,0.08,-2.02,0.98,0.29,-1.74
2022-12-06 15:33:32.2440,0.016,-1.068,0.432,-0.06,0.57,-3.46,0.71,-0.0,-1.6
2022-12-06 15:33:32.2540,0.304,-1.079,0.379,-2.29,0.8,-3.68,0.5,-0.18,-1.5
2022-12-06 15:33:32.2640,0.575,-1.076,0.243,-5.02,0.86,-2.58,0.43,-0.28,-1.37
2022-12-06 15:33:32.2740,0.662,-1.04,0.235,-7.12,0.7,-1.54,0.38,-0.37,-1.1
2022-12-06 15:33:32.2840,0.455,-1.007,0.244,-6.76,0.29,-1.78,0.27,-0.45,-0.8
2022-12-06 15:33:32.2940,0.126,-0.989,0.142,-3.92,0.04,-1.42,0.25,-0.47,-0.62
2022-12-06 15:33:32.3040,-0.131,-0.98,0.024,-0.73,-0.11,-0.18,0.32,-0.32,-0.62
2022-12-06 15:33:32.3140,-0.253,-0.975,-0.016,1.37,-0.18,0.78,0.39,0.02,-0.75
2022-12-06 15:33:32.3240,-0.237,-0.969,0.012,2.13,-0.23,0.9,0.44,0.32,-0.86
2022-12-06 15:33:32.3340,-0.116,-0.974,0.033,1.6,-0.27,0.62,0.51,0.47,-0.9
2022-12-06 15:33:32.3440,0.007,-0.992,0.072,0.34,-0.15,0.55,0.56,0.51,-0.89
2022-12-06 15:33:32.3540,0.068,-1.02,0.248,-0.54,0.04,-0.31,0.45,0.4,-0.84
2022-12-06 15:33:32.3640,0.133,-1.065,0.267,-1.0,0.43,-1.86,0.37,0.15,-0.76
2022-12-06 15:33:32.3740,0.14,-1.041,0.138,-1.52,0.71,-1.08,0.39,-0.05,-0.7
2022-12-06 15:33:32.3840,0.044,-0.989,0.075,-1.09,0.22,-0.03,0.43,-0.06,-0.67
2022-12-06 15:33:32.3940,-0.106,-0.995,0.023,0.18,-0.08,0.58,0.46,0.08,-0.69
2022-12-06 15:33:32.4040,-0.251,-1.011,-0.001,1.78,0.1,1.05,0.48,0.25,-0.77
2022-12-06 15:33:32.4140,-0.327,-1.005,-0.005,3.09,0.18,1.25,0.5,0.42,-0.92
2022-12-06 15:33:32.4240,-0.285,-0.991,0.018,3.51,0.08,1.25,0.52,0.53,-1.08
2022-12-06 15:33:32.4340,-0.152,-0.977,0.055,2.79,-0.06,0.99,0.54,0.53,-1.17
2022-12-06 15:33:32.4440,-0.021,-0.986,0.082,1.48,-0.12,0.7,0.57,0.48,-1.18
2022-12-06 15:33:32.4540,0.023,-1.007,0.092,0.56,0.07,0.59,0.6,0.38,-1.18
2022-12-06 15:33:32.4640,-0.019,-1.012,0.116,0.62,0.24,0.47,0.61,0.31,-1.22
2022-12-06 15:33:32.4740,-0.069,-0.996,0.125,1.27,0.26,0.4,0.64,0.27,-1.29
2022-12-06 15:33:32.4840,-0.075,-0.962,0.126,1.73,0.01,0.32,0.67,0.34,-1.35
2022-12-06 15:33:32.4940,-0.056,-0.96,0.112,1.8,-0.23,0.54,0.71,0.36,-1.39
2022-12-06 15:33:32.5040,-0.001,-0.997,0.125,1.66,-0.04,0.56,0.74,0.34,-1.44
2022-12-06 15:33:32.5140,0.072,-1.026,0.07,1.08,0.38,0.78,0.81,0.31,-1.47
2022-12-06 15:33:32.5240,0.051,-1.048,0.082,0.73,0.63,1.29,0.87,0.27,-1.42
2022-12-06 15:33:32.5340,-0.072,-1.083,0.107,1.53,0.92,1.02,0.94,0.22,-1.47
2022-12-06 15:33:32.5440,-0.183,-1.117,0.074,2.95,1.36,1.16,1.03,0.18,-1.58
2022-12-06 15:33:32.5540,-0.245,-1.132,0.08,4.0,1.63,1.47,1.11,0.1,-1.7
2022-12-06 15:33:32.5640,-0.264,-1.166,0.05,4.61,1.91,1.56,1.22,0.1,-1.86
2022-12-06 15:33:32.5740,-0.269,-1.188,0.018,4.85,2.31,2.11,1.33,0.13,-1.99
2022-12-06 15:33:32.5840,-0.302,-1.199,0.016,5.19,2.54,2.36,1.45,0.15,-2.13
2022-12-06 15:33:32.5940,-0.33,-1.216,0.029,5.74,2.77,2.57,1.57,0.17,-2.28
2022-12-06 15:33:32.6040,-0.338,-1.237,0.093,6.14,3.04,2.3,1.66,0.23,-2.43
2022-12-06 15:33:32.6140,-0.318,-1.26,0.123,6.34,3.4,1.95,1.75,0.28,-2.56
2022-12-06 15:33:32.6240,-0.287,-1.294,0.16,6.28,3.76,1.82,1.85,0.27,-2.64
2022-12-06 15:33:32.6340,-0.264,-1.387,0.152,6.23,4.4,1.71,1.95,0.23,-2.71
2022-12-06 15:33:32.6440,-0.254,-1.564,0.129,6.24,5.8,2.13,2.02,0.17,-2.73
2022-12-06 15:33:32.6540,-0.314,-1.761,0.175,6.54,7.89,2.34,1.98,0.16,-2.72
2022-12-06 15:33:32.6640,-0.493,-1.872,0.219,7.77,9.85,1.83,1.83,0.33,-2.78
2022-12-06 15:33:32.6740,-0.675,-1.807,0.098,9.99,10.49,2.13,1.72,0.34,-2.85
2022-12-06 15:33:32.6840,-0.654,-1.656,-0.057,11.43,9.57,3.78,1.66,-0.0,-3.02
2022-12-06 15:33:32.6940,-0.369,-1.441,-0.05,10.45,8.17,5.08,1.9,-0.48,-3.33
2022-12-06 15:33:32.7040,-0.031,-1.33,-0.084,7.36,6.15,4.67,2.24,-0.53,-3.72
2022-12-06 15:33:32.7140,0.267,-1.683,-0.229,4.62,7.06,6.04,2.42,-0.37,-3.74
2022-12-06 15:33:32.7240,0.482,-2.014,-0.052,1.98,11.54,6.61,2.3,-0.46,-3.37
2022-12-06 15:33:32.7340,0.447,-1.932,0.22,1.01,13.71,4.18,1.86,-0.83,-2.99
2022-12-06 15:33:32.7440,0.292,-1.575,0.277,2.25,11.78,2.09,1.23,-0.98,-2.56
2022-12-06 15:33:32.7540,0.191,-1.225,0.139,3.9,8.28,2.53,0.65,-0.58,-1.97
2022-12-06 15:33:32.7640,0.182,-0.958,0.007,4.65,5.26,4.02,0.37,0.19,-1.29
2022-12-06 15:33:32.7740,0.234,-0.804,0.044,4.5,3.21,4.95,0.37,0.74,-0.81
2022-12-06 15:33:32.7840,0.304,-0.655,0.296,3.95,1.76,3.68,0.1,0.89,-0.46
2022-12-06 15:33:32.7940,0.363,-0.733,0.409,3.12,0.94,1.38,-0.69,0.62,0.27
2022-12-06 15:33:32.8040,0.253,-0.749,0.275,3.01,2.05,1.19,-1.25,0.55,1.09
2022-12-06 15:33:32.8140,0.121,-0.537,0.079,4.42,0.97,3.06,-1.58,0.66,1.57
2022-12-06 15:33:32.8240,0.173,-0.392,-0.004,5.0,-1.32,4.51,-1.78,0.65,1.9
2022-12-06 15:33:32.8340,0.342,-0.377,-0.017,3.73,-2.42,4.98,-1.91,0.65,2.23
2022-12-06 15:33:32.8440,0.497,-0.43,0.033,1.85,-2.46,4.77,-2.07,0.92,2.61
2022-12-06 15:33:32.8540,0.585,-0.472,0.101,0.31,-2.15,4.08,-2.28,1.2,3.07
2022-12-06 15:33:32.8640,0.57,-0.467,0.147,-0.48,-2.2,3.35,-2.48,1.23,3.58
2022-12-06 15:33:32.8740,0.456,-0.445,0.168,-0.25,-2.67,2.92,-2.6,1.18,4.03
2022-12-06 15:33:32.8840,0.297,-0.453,0.179,0.75,-3.13,2.63,-2.66,1.19,4.36
2022-12-06 15:33:32.8940,0.131,-0.513,0.333,1.96,-3.2,2.1,-2.83,1.13,4.59
2022-12-06 15:33:32.9040,0.015,-0.654,0.527,3.14,-2.65,-0.17,-3.04,0.91,4.8
2022-12-06 15:33:32.9140,0.028,-0.85,0.545,3.35,-1.19,-1.65,-3.19,0.75,4.96
2022-12-06 15:33:32.9240,0.099,-0.818,0.424,2.51,-0.2,-1.58,-3.24,0.8,4.84
2022-12-06 15:33:32.9340,0.199,-0.874,0.335,1.2,-0.95,-0.29,-3.24,0.89,4.72
2022-12-06 15:33:32.9440,0.352,-1.015,0.543,-0.31,0.01,-0.89,-3.45,0.72,4.81
2022-12-06 15:33:32.9540,0.569,-1.126,0.661,-2.63,1.08,-3.39,-3.68,0.58,5.02
2022-12-06 15:33:32.9640,0.686,-1.16,0.564,-5.08,1.84,-3.99,-3.79,0.5,5.18
