time,gFx,gFy,gFz,ax,ay,az,wx,wy,wz
2022-12-06 15:33:20.299,0.13426299540349435,-0.6562876518963868,-0.6382854376813772,-2.1947628251481555,2.688573839956469,-2.91863735197171,3.5512698171122112,0.6891045767223216,0.4655394248892798
2022-12-06 15:33:20.309,0.1472185660054597,-0.6972144698051443,-0.6478433930767176,-2.2919273669515174,2.7794518961646393,-2.675401660351379,3.5648361912415294,0.7209460518520941,0.4682371172078113
2022-12-06 15:33:20.319,0.16001967829361155,-0.7375946900030235,-0.6570710045640834,-2.3869108942934263,2.867058032533891,-2.4337281450251704,3.5776403659560008,0.7417775931919722,0.46891845167869817
2022-12-06 15:33:20.329,0.17274879871670965,-0.7777470943238394,-0.6655937164375236,-2.4804422665994577,2.954795233992583,-2.194199952203132,3.589310990589537,0.7458264338276167,0.4654181357416345
2022-12-06 15:33:20.340,0.18555695803452824,-0.8180638104776929,-0.6729640285658491,-2.574203601256794,3.0466186641531237,-1.9582754315464137,3.5994344525956645,0.729191773585092,0.4561071446760788
2022-12-06 15:33:20.349,0.19864805477776723,-0.8589839939189314,-0.6786817417486884,-2.670676531115126,3.146887386873286,-1.7283860856531892,3.6075747912815306,0.6903866464769127,0.4400288376647235
2022-12-06 15:33:20.359,0.21226037006993026,-0.900972060373868,-0.6822352470811426,-2.7728618386241464,3.2602301042208173,-1.5077707839852776,3.61330894595859,0.6305790430309536,0.41691598026176974
2022-12-06 15:33:20.369,0.22664956066640862,-0.9444993180146969,-0.6831591579268949,-2.883963971905428,3.3914245055021452,-1.30006179953358,3.616287558573271,0.5535581282046291,0.3871077492179036
2022-12-06 15:33:20.379,0.24207096848379733,-0.9900259992919702,-0.6811014027212517,-3.0070875574475826,3.5452755133353504,-1.1086805659530157,3.616324352395876,0.46548762889579565,0.35139793189853025
2022-12-06 15:33:20.389,0.25875387829617436,-1.0379781457850668,-0.6758908260168988,-3.1449174944754597,3.726455830863555,-0.9361229981268336,3.613505424623607,0.374498347647039,0.31084250266955205
2022-12-06 15:33:20.399,0.2768612015546438,-1.088713150845012,-0.6675937428226283,-3.29931610285729,3.9392517250227064,-0.7832430222577974,3.6082981358778894,0.2901397190939251,0.2665465943930558
2022-12-06 15:33:20.409,0.29643495718287094,-1.1424708618639399,-0.6565487709766997,-3.4708021833345177,4.187165387630807,-0.6486619135746415,3.60163430360112,0.22268720745090387,0.21944653618373983
2022-12-06 15:33:20.419,0.31733750851572934,-1.1993126970363974,-0.6433739446995365,-3.6579589427444335,4.47236750465266,-0.5284046356197519,3.594946119721455,0.18230770378191832,0.17010613600947116
2022-12-06 15:33:20.430,0.339206161018487,-1.2590570616466752,-0.6289430045548037,-3.8569087460860083,4.795052451819139,-0.415817883039379,3.5901393518191544,0.17811961457393555,0.1185538485786395
2022-12-06 15:33:20.440,0.36143939458450364,-1.3212229931050656,-0.6143268778096842,-4.061042881444501,5.152801931447128,-0.30181253035004196,3.589491387171487,0.2172314635595838,0.06419036013388982
2022-12-06 15:33:20.449,0.3832254839005359,-1.3849938663658168,-0.6006977925689183,-4.2611618122974555,5.540084677308777,-0.17548285137078973,3.59546547206102,0.3038780652655477,0.0057906244278302845
2022-12-06 15:33:20.460,0.4036139656981314,-1.4492107596887245,-0.5892022877157055,-4.446081283941279,5.948005254000807,-0.025113963909551854,3.610443663518581,0.43877776389345496,-0.058386675138549594
2022-12-06 15:33:20.470,0.421621899034568,-1.512401974336356,-0.5808209779390011,-4.603657560842469,6.3643866833238425,0.16051955053167896,3.6363976512170177,0.6188043303699793,-0.1303829752575189
2022-12-06 15:33:20.480,0.4363582160464296,-1.5728492617063083,-0.5762390863117246,-4.722103184564735,6.774229996107434,0.390763420490059,3.6745320647365904,0.8370151292338722,-0.21223465252166734
2022-12-06 15:33:20.490,0.4471403078666738,-1.6286828179029367,-0.5757507420425073,-4.7913761541117115,7.16052005137273,0.6718373170192351,3.724946977482884,1.0830236186589146,-0.3056165691174127
2022-12-06 15:33:20.500,0.4535743061094716,-1.677991483716034,-0.5792138296422794,-4.80435293985265,7.505265036593682,1.005944579601471,3.78637509358139,1.3436710807849148,-0.41149072114840785
2022-12-06 15:33:20.510,0.455581115924182,-1.7189369763940725,-0.5860604306474342,-4.757518266586687,7.790627188532139,1.3908759051546011,3.8560501684641797,1.6039510914996569,-0.52982620837933
2022-12-06 15:33:20.520,0.453371112579343,-1.7498701796447487,-0.5953542077604639,-4.65105910614196,8.00005652877028,1.8201180463841617,3.9297482467082308,1.8481391183088047,-0.6594479760306956
2022-12-06 15:33:20.530,0.44738782928589627,-1.7694538475165815,-0.6058802721482797,-4.488463958121727,8.119434576848876,2.2833678779263358,4.002010227780493,2.0610281819163525,-0.7980385235452405
2022-12-06 15:33:20.540,0.4382427980658164,-1.7767891936037525,-0.6162562516516474,-4.275856269631301,8.138259653245226,2.767338312757562,4.066518435489048,2.2291040034114538,-0.942275800833448
2022-12-06 15:33:20.550,0.426652879336151,-1.7715268071652224,-0.6250548326660559,-4.021258471985405,8.050793419856129,3.2567783466013127,4.11658092383595,2.34150291326628,-1.0880693448754146
2022-12-06 15:33:20.560,0.4133811642791504,-1.7539305530391744,-0.6309237066513668,-3.7338683920128424,7.8569252303430615,3.735617128898918,4.145673907958758,2.3906823945591142,-1.230856819467475
2022-12-06 15:33:20.570,0.3991807777858577,-1.7248677520534506,-0.6326857613571487,-3.4233576597684414,7.562451661706808,4.188090705957602,4.147990916954916,2.37281315513479,-1.3659265186269736
2022-12-06 15:33:20.580,0.38474415829433245,-1.6857176185936946,-0.6294069887207244,-3.099209301115362,7.1785770581177335,4.59969903923343,4.118944481085742,2.2879322923821404,-1.4887329295927356
2022-12-06 15:33:20.590,0.37066146356419843,-1.638211995279909,-0.6204293929442453,-2.7701390851843217,6.7206507893459735,4.957902692893553,4.055568562434491,2.13989520928106,-1.595178297970901
2022-12-06 15:33:20.600,0.35739024796158314,-1.5842394408086113,-0.6053734189219379,-2.4436387595180644,6.206359807182957,5.252552570922192,3.956779467663063,1.9361497650684454,-1.681843298175661
2022-12-06 15:33:20.610,0.3452383848657279,-1.5256525815403201,-0.5841175985070556,-2.1256635481813007,5.65373212080632,5.476090846724751,3.823468592168258,1.6873413426083135,-1.7461591636129574
2022-12-06 15:33:20.620,0.3343622937678423,-1.4641168031981262,-0.5567669224152484,-1.820488466306188,5.079355601805861,5.623584656577899,3.658421834080397,1.4067505434662895,-1.78652033639552
2022-12-06 15:33:20.630,0.3247797837588317,-1.401024938866726,-0.5236249380823585,-1.5307466817095972,4.497150252349702,5.692694145624235,3.4660850845562168,1.109570212349197,-1.802341655969791
2022-12-06 15:33:20.640,0.3163933764806376,-1.3374834683472168,-0.48518127641234,-1.2576233274770463,3.9178646393205865,5.683695305093336,3.2522147710880547,0.8120433401426667,-1.7940663985910985
2022-12-06 15:33:20.651,0.30901946837624505,-1.2743592320997608,-0.4421151280072001,-1.001148211084901,3.3492778984100733,5.599618971238748,3.0234591745436,0.530503223172906,-1.7631306158952658
2022-12-06 15:33:20.661,0.30242043371065325,-1.2123646660985845,-0.39530319941122993,-0.7605352765320826,2.7969445068235803,5.446450227357529,2.786910486769,0.28037805490902395,-1.7118865101385627
2022-12-06 15:33:20.671,0.2963377872951399,-1.1521532049383802,-0.3458159573382846,-0.5345349673677248,2.2652262127837175,5.233239374277115,2.549658013945186,0.0752388871596465,-1.643484505033998
2022-12-06 15:33:20.680,0.29052392943222377,-1.0943961597604985,-0.29489091789093014,-0.32177268680348337,1.7583110144348129,4.971970832217589,2.3183684896064363,-0.07402520481488246,-1.561712616677273
2022-12-06 15:33:20.690,0.28476899432740665,-1.0398202114609818,-0.24388220879397998,-0.12104233242842831,1.2809465933415434,4.677118304622518,2.0989210624241195,-0.15983302793127532,-1.4707953294433214
2022-12-06 15:33:20.701,0.27891899979223983,-0.9891984648781619,-0.1941942601239182,0.06847992672489536,0.83872291711545,4.3649243188490985,1.89612523945995,-0.1782929998786041,-1.3751617909630158
2022-12-06 15:33:20.711,0.27288236288127865,-0.9433021413382935,-0.1472098530923992,0.24713339470760115,0.43788520499579947,4.0525107790736,1.7135439850053065,-0.12932907537516902,-1.2792009531124648
2022-12-06 15:33:20.721,0.2666242505865923,-0.9028296220813385,-0.10422073566116602,0.41479908604871374,0.0847875201644399,3.7569349573455315,1.5534323008345945,-0.016571493634860435,-1.1870256171186466
2022-12-06 15:33:20.731,0.2601513409221961,-0.8683321709944583,-0.06636576999004119,0.5710431849679827,-0.2148303488640098,3.494281064601617,1.4167875204990852,0.15294398036123713,-1.1022671252020204
2022-12-06 15:33:20.741,0.2534911114866171,-0.8401520640689356,-0.03457836810218389,0.7153399943625403,-0.4565587640215487,3.278843022998458,1.3034925894103988,0.3692170632544853,-1.0279184340524259
2022-12-06 15:33:20.751,0.2466692161611183,-0.8183829522249727,-0.009543400957892634,0.847331632316608,-0.6378901818124699,3.122423782711177,1.2125176393017947,0.6198306485195852,-0.966234145284741
2022-12-06 15:33:20.761,0.23968843527501782,-0.8028569426727447,0.008336425868812964,0.9670884438551289,-0.7585666671107025,3.0337651991304755,1.1421318907611009,0.8906089079587323,-0.9186828819760321
2022-12-06 15:33:20.771,0.23251396236276872,-0.7931584905817649,0.018965297010581066,1.0753278353796778,-0.8206714737938867,3.0181149691565476,1.0900796650668005,1.1663986393669676,-0.8859412660339604
2022-12-06 15:33:20.781,0.22506912179303323,-0.7886614368031992,0.02256962647889768,1.1735398072707741,-0.8284740681870412,3.076927367984332,1.05369803562427,1.431938470604589,-0.8679257491437887
2022-12-06 15:33:20.791,0.21724102012458038,-0.7885814379180167,0.019699431468546785,1.263989196541466,-0.7880745562155763,3.2077128489167017,1.0299846191875455,1.6727316664751484,-0.8638659215097639
2022-12-06 15:33:20.801,0.20889083046346205,-0.7920324204219931,0.011208070710030923,1.3496173440270527,-0.7069344240893338,3.404092648582517,1.0156430011857192,1.875847055475622,-0.8724188469952189
2022-12-06 15:33:20.811,0.19986388290152687,-0.7980769118534224,-0.0017952751817759973,1.433899750184024,-0.5934040424015953,3.656127938842172,1.0071371785346568,2.030609689001372,-0.8918133963003241
2022-12-06 15:33:20.821,0.19000007344388373,-0.8057681169556479,-0.01801937579539136,1.5206906329303973,-0.4563191864232648,3.9509530149278316,1.000779406174851,2.1291583168377115,-0.9200059098952958
2022-12-06 15:33:20.831,0.179148242630116,-0.8141905170489,-0.03608306792900728,1.6140329995409082,-0.3046470449872376,4.273672088456832,0.9928616052639967,2.1668405322236857,-0.9548279983021836
2022-12-06 15:33:20.841,0.16718483583357957,-0.8225068366706407,-0.05461407255820773,1.7179063980486475,-0.14709669145421464,4.60842233821039,0.9798254422920283,2.142410259938838,-0.9941139284515635
2022-12-06 15:33:20.851,0.1540320254184972,-0.8300113909948433,-0.07234202842500298,1.8359342225807749,0.008362777504785944,4.939478452203411,0.9584555635873794,2.0579967434984834,-1.0358052560519901
2022-12-06 15:33:20.861,0.13967061835689965,-0.8361816917052725,-0.08817510734686265,1.9711118460726358,0.15504178052616518,5.252270094734192,0.9260741176287834,1.91883274143098,-1.0780367439231042
2022-12-06 15:33:20.871,0.12414889793864313,-0.8407190761590844,-0.10125489008034307,2.125592497673812,0.28803380995960254,5.534213340219138,0.8807121544470086,1.7327619087670392,-1.1192036693019103
2022-12-06 15:33:20.881,0.10759301012449779,-0.8435721668460756,-0.11098984751230641,2.300505547571367,0.404600358199074,5.775317210836705,0.8212365249835452,1.509579081495191,-1.1580011986137189
2022-12-06 15:33:20.891,0.09022096748339745,-0.8449382017795928,-0.11706936123964579,2.4957619325174067,0.5043793796108967,5.96857024198468,0.7474189346296698,1.2602753247899499,-1.1934250359597118
2022-12-06 15:33:20.901,0.07235404825171703,-0.8452386514073694,-0.11945941827582385,2.7098607503959187,0.589363496724422,6.1101152756095445,0.6599430981433623,0.9962596133444691,-1.2247325885072664
2022-12-06 15:33:20.911,0.05441637166952993,-0.8450712969703442,-0.11838178072765164,2.9397811310062076,0.663622891726823,6.199219367337288,0.5603531956403968,0.7286200450293686,-1.2513757682144646
2022-12-06 15:33:20.921,0.03691834947728753,-0.8451470752243115,-0.1142793173797203,3.181039152598894,0.732816424845937,6.23805968785209,0.4509505420952012,0.46747531457461067,-1.2729221740799683
2022-12-06 15:33:20.931,0.02042522401259484,-0.8462205640529554,-0.1077694735155125,3.4279288741726694,0.8035790435917262,6.231351326014099,0.3346462755552877,0.22145334695198768,-1.2889811742259694
2022-12-06 15:33:20.941,0.0055134414843517245,-0.8490200538005803,-0.09958773751156422,3.673924949587468,0.882860734458251,6.185836137827674,0.21477898243975257,-0.0026801691580086206,-1.2991486775330163
2022-12-06 15:33:20.951,-0.0072813392517730325,-0.854182117519035,-0.09052510448855444,3.9122143266385154,0.9772662536471658,6.109659256600964,0.09490998019486216,-0.200234248241773,-1.3029799017829586
2022-12-06 15:33:20.961,-0.01751711201876721,-0.8621972926562471,-0.08136638708303129,4.136302948702108,1.0924471711207393,6.011686097953643,-0.021385678009157735,-0.3686495987247358,-1.2999924755253176
2022-12-06 15:33:20.972,-0.024888200878095436,-0.8733752894363896,-0.07283767059245251,4.340602014677192,1.2326196939212695,5.900838630415842,-0.1307110555807901,-0.507414662061928,-1.2896941812309852
2022-12-06 15:33:20.982,-0.029246938823082467,-0.8878380690277042,-0.06557015893621561,4.520875965330807,1.4002960005320566,5.785538561499084,-0.2300020296933105,-0.6178640577608958,-1.2716235374960294
2022-12-06 15:33:20.992,-0.030597743811778433,-0.9055460444754326,-0.06008399904558768,4.674453196406686,1.596307240317159,5.6733267617232865,-0.31663112646292085,-0.702888980225664,-1.24538910200749
2022-12-06 15:33:21.002,-0.029064217130415453,-0.9263553768054468,-0.05679085654304235,4.800151734692049,1.82015153728083,5.570684902059025,-0.3884556160126803,-0.7665922496599419,-1.2106958012060638
2022-12-06 15:33:21.012,-0.02483903231421558,-0.9500937593964948,-0.05601004706096115,4.897950950971568,2.0706130933363824,5.483037055761147,-0.44381427309060784,-0.8139207484522392,-1.1673533140302077
2022-12-06 15:33:21.022,-0.01813301322641207,-0.9766330840789552,-0.057990232765675054,4.968529890310039,2.346491971040725,5.414871901325149,-0.48148671690021805,-0.8503049864297121,-1.1152686714181985
2022-12-06 15:33:21.032,-0.009138721822466073,-1.0059359629556495,-0.06292694116339667,5.0128376319023715,2.6472168602225206,5.369899376353714,-0.5006381657509116,-0.8813296345023954,-1.0544281295887188
2022-12-06 15:33:21.042,0.0019844151968270666,-1.0380610720524397,-0.07096691071413128,5.031822389086008,2.9731341739636017,5.351144189084437,-0.5007772912664225,-0.912450272132873,-0.984871180757669
2022-12-06 15:33:21.052,0.015106300079955998,-1.073125797934473,-0.0821943563697574,5.026352806445538,3.325371688146696,5.3608978340323965,-0.48175149042193144,-0.9487611359454797,-0.9066545797831048
2022-12-06 15:33:21.062,0.03011314887915806,-1.1112375021988001,-0.09659991006572383,4.997276205944855,3.7053117921385477,5.400499218204523,-0.4437919211661391,-0.9948087335141489,-0.819799403947117
2022-12-06 15:33:21.072,0.04689642020913037,-1.1524122498611058,-0.11403801756715436,4.9455100249613695,4.113819530168778,5.469969266993167,-0.38760454636185476,-1.0544403351427822,-0.7242127861177299
2022-12-06 15:33:21.082,0.06535172642043006,-1.1965004712760836,-0.13418205187764803,4.872063230522619,4.550419136625663,5.567569034701115,-0.3144887876269027,-1.1306761402107612,-0.6195813883441121
2022-12-06 15:33:21.092,0.0853892145035368,-1.2431342709210886,-0.15648790051162842,4.777930300942859,5.0125963114504986,5.689378724530248,-0.22645530886986034,-1.2255978592197447,-0.5052461750426532
2022-12-06 15:33:21.102,0.10695033735764473,-1.2917047556885795,-0.18017620762859335,4.663870469026932,5.495347842456169,5.8290036638705764,-0.1263100590662398,-1.3402526073658882,-0.3800830479813479
2022-12-06 15:33:21.112,0.13002310689950197,-1.341372835402571,-0.20424119400810117,4.530140179076963,5.991043713563576,5.9775023430634375,-0.017674234660700876,-1.4745780746761865,-0.24242471278315972
2022-12-06 15:33:21.122,0.15464925828838536,-1.3911130924688815,-0.22749008466596868,4.3762598794559375,6.489626760277277,6.123603578281398,0.09508066404480381,-1.6273615126588807,-0.09006067995972222
2022-12-06 15:33:21.132,0.18091981157766568,-1.439786044126423,-0.24861210611736334,4.200877501794955,6.979138541790623,6.254236153014239,0.20699004303069074,-1.7962487093418804,0.07965698082202174
2022-12-06 15:33:21.142,0.2089588193706646,-1.4862302632608801,-0.26627147650168076,4.00176361895928,7.446519304782247,6.355344721035888,0.3127397673533433,-1.9778165088500357,0.2695925819869885
2022-12-06 15:33:21.152,0.2388982880114956,-1.5293638564860852,-0.2792158659528085,3.775942492049074,7.878598132981949,6.4129266603458035,0.4069794956872789,-2.1677130748201625,0.4825033324719666
2022-12-06 15:33:21.162,0.27084869200153083,-1.5682838470926295,-0.28638989232758266,3.519933276059108,8.263172467157226,6.414199237087195,0.48468102595444595,-2.3608582594603886,0.7206471376453087
2022-12-06 15:33:21.172,0.3048678833881142,-1.6023508289111363,-0.28704167754789084,3.2300673925461476,8.590060541439012,6.348786303861554,0.5415090605701615,-2.5516872477145256,0.985368625746962
2022-12-06 15:33:21.182,0.34092893374069655,-1.6312462339505136,-0.2808096470009402,2.9028658752759973,8.851994287677565,6.209796598426825,0.574164364018287,-2.7344165194604457,1.2767132810004804
2022-12-06 15:33:21.192,0.3788882066191194,-1.654992534802369,-0.2677776547046445,2.5354709086209817,9.045225229002893,5.9946603479744,0.5806565147011398,-2.903314249675421,1.5931189544395918
2022-12-06 15:33:21.202,0.41845831044604853,-1.6739318075250151,-0.24848984677797817,2.1261018293895386,9.169751158265889,5.7056078782182205,0.5604696567702342,-3.0529705478616447,1.931242540884329
2022-12-06 15:33:21.212,0.4591923203348202,-1.688663619985455,-0.22392190630097947,1.6744697219277338,9.229122028823756,5.349715195575145,0.5145986204291415,-3.1785753160701025,2.2859832151318016
2022-12-06 15:33:21.222,0.5004831587785544,-1.6999487091872554,-0.19541104319963454,1.18207950829612,9.229837913211144,4.9384978968945745,0.44544911463549575,-3.276199512369425,2.6507238510864797
2022-12-06 15:33:21.233,0.54157715686972,-1.7085897780348562,-0.16455204728423714,0.6523844899555442,9.180405692845454,4.48709185310399,0.35661169442273083,-3.3430468340632036,3.017743548389354
2022-12-06 15:33:21.242,0.5815980231050707,-1.7153047388395801,-0.1330703063502964,0.09080328061920304,9.090167989300804,4.013106162292711,0.2525356610781247,-3.377634036240258,3.378721083394845
2022-12-06 15:33:21.253,0.6195795578699539,-1.7206116353667071,-0.10268428157454486,-0.49537982670368547,8.968062360077335,3.5352652678473433,0.13814303775500308,-3.3798751940555096,3.72526343705387
2022-12-06 15:33:21.263,0.6545104342064599,-1.7247466672044114,-0.07496923565545846,-1.097245291189315,8.821512822573549,3.0719665160095593,0.018427822217376853,-3.3510638790470657,4.049414821936949
2022-12-06 15:33:21.273,0.6853960253859447,-1.7276325652587106,-0.051232869796909726,-1.704656611099435,8.655664777569315,2.6398702304806605,-0.10191811383775763,-3.293757973441255,4.3441109386059695
2022-12-06 15:33:21.283,0.711336016637173,-1.7289025846949262,-0.03241421068593905,-2.3069092881799,8.473105763237976,2.2526358764393115,-0.21881689493358028,-3.2115804483938626,4.603545346037937
2022-12-06 15:33:21.293,0.7316055313257076,-1.727970899582063,-0.019017804979944725,-2.8935612259912094,8.274082055466703,1.9199308165201767,-0.3290255551077527,-3.108956730468208,4.82341828351398
2022-12-06 15:33:21.303,0.7457209137736347,-1.7241303914938253,-0.011091937838618428,-3.455287495383323,8.057092283089771,1.6468338388028316,-0.43025366603665155,-2.9908074922068164,5.001057443332947
2022-12-06 15:33:21.313,0.7534754424908361,-1.7166570467224755,-0.008252463019054378,-3.9845692921442897,7.8196724920464264,1.4337034515809906,-0.5211897924066046,-2.862204907930977,5.135433093025965
2022-12-06 15:33:21.323,0.7549416344036664,-1.7049046024383014,-0.009747133443121923,-4.4760976850465966,7.559196006556881,1.2765044579429161,-0.6014601972430224,-2.728005069358411,5.227100600211548
2022-12-06 15:33:21.333,0.7504451678701721,-1.6883788900444083,-0.014551198440449893,-4.9268819629914615,7.27356485874086,1.1675267114313927,-0.671532349793518,-2.5925008812717865,5.278075708341456
2022-12-06 15:33:21.343,0.7405161305828476,-1.6667860438901163,-0.021482638061178994,-5.336105843866558,6.961719969736872,1.0963957240202726,-0.7325659325086816,-2.459157767489451,5.291624806882071
2022-12-06 15:33:21.353,0.7258229421001359,-1.6400544285610508,-0.029323866326332274,-5.704767893798268,6.623937482303795,1.051252644867186,-0.7862206288124535,-2.330466823958113,5.271967211668557
2022-12-06 15:33:21.363,0.7070987681861501,-1.60833638636239,-0.03693661420157156,-6.0351559895511375,6.261933540400068,1.019966925376996,-0.8344372353857779,-2.2079085094387816,5.223914013021154
2022-12-06 15:33:21.373,0.6850747095509716,-1.57199701368267,-0.043359297772651885,-6.330262254958348,5.878844867277961,0.9912521110527364,-0.8792052519586591,-2.092001539485549,5.152481778839847
2022-12-06 15:33:21.383,0.6604318103954671,-1.5315918661952335,-0.047880768144852454,-6.593274031497813,5.479133354618646,0.9555930724328952,-0.9223247513318135,-1.9824129162838802,5.062526075550245
2022-12-06 15:33:21.393,0.6337766884940151,-1.4878310560673313,-0.05008744278754857,-6.827235796149292,5.068401262702995,0.9059391644806474,-0.9651713463284457,-1.878111768608798,4.958442655237417
2022-12-06 15:33:21.403,0.605639127004804,-1.4415292441589829,-0.049880873886848406,-7.034907533125288,4.653080632667618,0.8381363804293726,-1.0084812829911058,-1.7775552855224963,4.843971793833926
2022-12-06 15:33:21.413,0.5764858493042267,-1.3935464455437379,-0.047463097382637626,-7.218793941201513,4.24000123069815,0.7510668417501882,-1.0521841772001135,-1.6788991517967367,4.72211511772667
2022-12-06 15:33:21.423,0.5467422468974957,-1.3447282314183693,-0.04329054136587216,-7.381285694291463,3.8358949079888034,0.6464765927049673,-1.0953150544866144,-1.5802300097093818,4.595149719618254
2022-12-06 15:33:21.433,0.5168150648313362,-1.2958558608042818,-0.03800152848790424,-7.524840341850082,3.44692495941703,0.5285119833315373,-1.1360313837902953,-1.4798196101367533,4.464711276262985
2022-12-06 15:33:21.443,0.48711253816260935,-1.2476163362240982,-0.03232437048815729,-7.65215463209625,3.078344835063915,0.4030165116162066,-1.1717472744049606,-1.3763922422242876,4.3319152500315035
2022-12-06 15:33:21.453,0.4580571042584879,-1.20059430574341,-0.02697485562468953,-7.7663006240734385,2.7343622780603507,0.2766532721681023,-1.1993781039410556,-1.269378848380832,4.197487035551597
2022-12-06 15:33:21.463,0.4300819990886878,-1.155275487845232,-0.022556645792166388,-7.870762894207881,2.4181780494546943,0.15594694373327425,-1.215666603937406,-1.1591126053590541,4.061875746581615
2022-12-06 15:33:21.473,0.403608126766267,-1.1120472499938376,-0.019481977122858957,-7.969297527016692,2.132066055469912,0.04639018098993646,-1.2175425967921125,-1.046915071163275,3.9253347081228713
2022-12-06 15:33:21.483,0.3790091266148711,-1.0711893777067736,-0.01792683477725144,-8.065617640255311,1.877372212641755,-0.048221802535495975,-1.2024620211802743,-0.9350357709397474,3.7879635882072735
2022-12-06 15:33:21.493,0.3565774780302072,-1.0328586978096277,-0.017824950813287065,-8.16301140417399,1.654407634761127,-0.12612031666004433,-1.168680557365127,-0.8264364710017925,3.6497172769207977
2022-12-06 15:33:21.504,0.33650012356900005,-0.9970770535456703,-0.018894241075394072,-8.26401031893994,1.4623045305635007,-0.1875525227007537,-1.1154388237706379,-0.7244448426348472,3.510391399092801
2022-12-06 15:33:21.514,0.31884379039532534,-0.9637299166218563,-0.020682635372002732,-8.37016202907084,1.2989308373956023,-0.23452225498204254,-1.0430587239224092,-0.6323325742908642,3.369592604978412
2022-12-06 15:33:21.523,0.3035434930273445,-0.9325760919166063,-0.022620316494130873,-8.481878501480086,1.160912648365478,-0.2704132718261738,-0.9529626681611104,-0.5528920382351737,3.2266968288763342
2022-12-06 15:33:21.534,0.2903892622717076,-0.903265177516492,-0.024071175211744265,-8.598287840169382,1.0437485413460361,-0.29959807342094774,-0.847625745156885,-0.48808562065240324,3.0807984166168687
2022-12-06 15:33:21.544,0.2790161790714163,-0.8753610185672697,-0.024382877000877108,-8.717070978728689,0.9419838189051533,-0.3270669185039455,-0.7304626645815173,-0.43882288285919535,2.9306616193069153
2022-12-06 15:33:21.553,0.2689112987359771,-0.8483724907393911,-0.02293707302770053,-8.834372696834032,0.8494398105170377,-0.3580568720538236,-0.6056474392340996,-0.4048928218125642,2.77469845833367
2022-12-06 15:33:21.564,0.25944963203992516,-0.8217947948186671,-0.019198257981399902,-8.944930266373769,0.7595225863009344,-0.39766072336205566,-0.4778695981746315,-0.3850519440152157,2.611003475394482
2022-12-06 15:33:21.574,0.24996131329196491,-0.7951638522592366,-0.0127561576784615,-9.042512844835079,0.6656477727211987,-0.45043542364186084,-0.35204285914293443,-0.3772466535906227,2.437469132951544
2022-12-06 15:33:21.584,0.23982037454250504,-0.7681222886806908,-0.0033567254034991396,-9.120651882557183,0.5618012943245788,-0.5200555570144944,-0.23299094108153917,-0.3789308273622408,2.251984521647667
2022-12-06 15:33:21.594,0.2285383507943657,-0.740489799523616,0.009079746487562207,-9.173538547834395,0.4432066153747223,-0.6090435631670144,-0.12513063341889868,-0.3874294090960867,2.05268887626254
2022-12-06 15:33:21.604,0.21584523794651694,-0.7123274521899493,0.024452220008305537,-9.196916186400257,0.30701704498208954,-0.7185790910570599,-0.032161827945240425,-0.4002954955476005,1.8382256822892513
2022-12-06 15:33:21.614,0.20174390366325484,-0.6839859391170511,0.04248369401408003,-9.18880668052907,0.15293101313276683,-0.8483815555381783,0.04321940099625491,-0.41560540426069986,1.607944216003565
2022-12-06 15:33:21.624,0.1865287105171525,-0.656129510222855,0.06273888287032967,-9.149949297142122,-0.016362968981057702,-0.9966805852626864,0.09954865786725768,-0.4321377337546877,1.3620187194519888
2022-12-06 15:33:21.634,0.17076375760571588,-0.6297278767202881,0.08465633450283776,-9.08387351123759,-0.19499509946601098,-1.1603080886430988,0.1367226154570523,-0.449400316511113,1.1014734424331598
2022-12-06 15:33:21.644,0.15522158336344213,-0.6060090129077058,0.1075929593783008,-8.996572611463895,-0.3740604973371005,-1.3349312522392454,0.15600981538845218,-0.4674995636935744,0.8281080365128727
2022-12-06 15:33:21.654,0.14078966341903362,-0.5863702854160354,0.1308747808485273,-8.895802061402525,-0.5421692140075812,-1.515404873710153,0.15994509352261832,-0.48687482151235134,0.5443267588682419
2022-12-06 15:33:21.664,0.12835839031469087,-0.5722548428353658,0.15384564203079135,-8.790092920965964,-0.6864002281313566,-1.6961850683472808,0.1521251334878314,-0.5079393635229768,0.2528899470959795
2022-12-06 15:33:21.674,0.11870895074896654,-0.5650109714313524,0.17590583677181182,-8.687631453330052,-0.7935553114401841,-1.8717310038328314,0.13693188410081164,-0.5306812999055408,-0.04337960404435162
2022-12-06 15:33:21.684,0.11242112929240039,-0.565758865360174,0.19653460280682516,-8.595195564996533,-0.8515120230175045,-2.036824398557042,0.11921416910950491,-0.554285103289314,-0.34189294646722523
2022-12-06 15:33:21.694,0.10981767406813511,-0.5752880288624215,0.2152943557293875,-8.517339485305023,-0.850432777443991,-2.1867562325219168,0.10395584211504369,-0.576839312155276,-0.6405470779710344
2022-12-06 15:33:21.704,0.11095287443358848,-0.5939984751592077,0.23182034052012504,-8.45596510052267,-0.7836295088636711,-2.317370673376561,0.09595205704857897,-0.5951945491212293,-0.9378884772653815
2022-12-06 15:33:21.714,0.1156414503951528,-0.6218847441772174,0.24580463749353385,-8.41031921205783,-0.6480022744785735,-2.4250112161457267,0.09950598976492551,-0.6050226418137539,-1.23315864702783
2022-12-06 15:33:21.724,0.12351555613338837,-0.6585519234792384,0.2569845931596102,-8.377351023373167,-0.44410002738965676,-2.5064535806659105,0.11815153590121225,-0.6011027834502456,-1.5262255269948535
2022-12-06 15:33:21.734,0.13409661252553384,-0.7032522809443505,0.2651416392030704,-8.35230672478086,-0.17591495557817124,-2.558902293756992,0.1544078414641381,-0.5778247943056848,-1.8174376006394288
2022-12-06 15:33:21.744,0.14687272218911696,-0.7549374923723967,0.2701098424488088,-8.329449240738676,0.1495041497546199,-2.58007549110159,0.20957883406862773,-0.529851460332763,-2.107432255541532
2022-12-06 15:33:21.754,0.16137558771948965,-0.812327670644015,0.2717888204802266,-8.302833371681215,0.5226031222218839,-2.568343511094395,0.28361862168293334,-0.45283746056180674,-2.396897619308006
2022-12-06 15:33:21.764,0.17724977463243732,-0.8739984014352237,0.2701554383465228,-8.267082042474785,0.9320608525767828,-2.5228620636856,0.3750842500624829,-0.34408731674170484,-2.6862833768133076
2022-12-06 15:33:21.774,0.19430402668385216,-0.9384811989714962,0.2652713861999934,-8.21808379536042,1.3657082490249632,-2.4436576424511984,0.48118936631110154,-0.20305115930220347,-2.9754880246763262
2022-12-06 15:33:21.784,0.21253294753077182,-1.0043657284107947,0.2572862027131444,-8.153499710318911,1.8115515713212806,-2.3316539660872264,0.5979595767598161,-0.03158723424925473,-3.263578030160086
2022-12-06 15:33:21.794,0.23209851967267298,-1.070385508982527,0.24643688817012752,-8.072958997450352,2.258753537981579,-2.1886511434885367,0.7204772161072175,0.16604599829821548,-3.548601762815319
2022-12-06 15:33:21.804,0.2532653670021098,-1.1354652374299676,0.2330460425432891,-7.977838821842344,2.6983646082239403,-2.017283846784959,0.8431934726026167,0.3834693928435126,-3.827552062790061
2022-12-06 15:33:21.814,0.27629520172098765,-1.1987158300793392,0.21751888062103694,-7.870587256069717,3.1235942047430334,-1.8209835558301946,0.9602818374265017,0.6127017962898051,-4.096505760736117
2022-12-06 15:33:21.824,0.30132345053523746,-1.2593844230314404,0.2003354790041307,-7.753691393455964,3.5295463333217523,-1.6039381464800253,1.0660090255133783,0.8448592845146533,-4.350929870016934
2022-12-06 15:33:21.834,0.32825278632518107,-1.3167860066832386,0.18203224578522506,-7.628561949072749,3.912570295665651,-1.3709980966579283,1.1551044023873578,1.0709587158332647,-4.5861056426618605
2022-12-06 15:33:21.845,0.3566935141005962,-1.3702461689735375,0.16316967795859463,-7.4946684177310825,4.269520151630331,-1.1274702167228434,1.2231105976519308,1.2827371044195581,-4.7975970910589965
2022-12-06 15:33:21.855,0.38596308388423106,-1.419072757875297,0.1442903787703341,-7.34915694315775,4.597184144803491,-0.8787867398270135,1.266693958141233,1.4733914123193605,-4.981686026540799
2022-12-06 15:33:21.864,0.4151391858226871,-1.4625600306861066,0.12587671199723338,-7.187000651680036,4.892012682085351,-0.6301044339926083,1.2838880335362808,1.6381476752424424,-5.135707999537327
2022-12-06 15:33:21.875,0.44315135283672746,-1.5000197534761572,0.10831766493557901,-7.001590189148596,5.150150982306184,-0.38592435200384295,1.274243025625395,1.7745889254394707,-5.258245113317692
2022-12-06 15:33:21.885,0.46889408596596344,-1.5308308902265335,0.0918897425270219,-6.785616433402356,5.3677173609045665,-0.14980668682690373,1.2388614167798508,1.8827063056795081,-5.349156548450314
2022-12-06 15:33:21.895,0.49134515161851094,-1.5544999529043835,0.0767506607716988,-6.5320953383261715,5.541254017779779,0.07579721451260199,1.180311241298906,1.9646801102640243,-5.409453108002662
2022-12-06 15:33:21.905,0.5096728086836513,-1.5707236036620147,0.06294191521705196,-6.235388336179034,5.6682778679859,0.2896205997570998,1.1024202294799161,2.0244373464117005,-5.441046000313547
2022-12-06 15:33:21.915,0.5233165067866156,-1.5794431371527045,0.05039823882200431,-5.892068875426478,5.74784356235203,0.49159299804455064,1.0099663956413,2.0670595542249406,-5.446418857600248
2022-12-06 15:33:21.925,0.5320293250483612,-1.5808803278847186,0.03896445758111917,-5.501499242951096,5.781011886177535,0.6827841816770958,0.9082932141256289,2.0981255004306334,-5.428282138442241
2022-12-06 15:33:21.935,0.5358770456144096,-1.5755473955064938,0.028419085771289286,-5.066026949588472,5.7711261305507815,0.8652611538027967,0.8028890023372321,2.1230715129894477,-5.389268118636607
2022-12-06 15:33:21.945,0.5351969297686774,-1.564228164624785,0.018500714855091454,-4.5907780934607825,5.723836707637236,1.0418648848900383,0.6989769920714641,2.146640936035404,-5.331710992765279
2022-12-06 15:33:21.955,0.5305274567764959,-1.547930724474486,0.00893239577805733,-4.083103801788676,5.646852912197185,1.21594646552413,0.6011566827518459,2.1724753140948554,-5.257532024019361
2022-12-06 15:33:21.965,0.5225255316650109,-1.52781502588519,-0.000558245296461991,-3.5518072920586508,5.5494301258938465,1.3911028001321248,0.5131201646649833,2.2028753945596447,-5.168223013596042
2022-12-06 15:33:21.975,0.5118870008055003,-1.505103483773106,-0.010222334207470502,-3.006311115557581,5.44163757184968,1.5709260544010075,0.43745678328873294,2.2387317963798425,-5.064904384339835
2022-12-06 15:33:21.985,0.4992802270258287,-1.4809874758039914,-0.020274328555857594,-2.45589721088639,5.3335032084146725,1.7587585032897033,0.37555884288898556,2.2795996606365865,-4.948430802648078
2022-12-06 15:33:21.995,0.4852951471482821,-1.4565441525269285,-0.03087589675764778,-1.9090855995087221,5.234173545526513,1.9574398267317006,0.3276322773445385,2.3238779631348763,-4.81952112118794
2022-12-06 15:33:22.005,0.4704065270084764,-1.432674193445525,-0.04211828500696929,-1.373157506226402,5.151223081334129,2.1690422131812506,0.2927981515521214,2.3690549009734188,-4.678893386084065
2022-12-06 15:33:22.015,0.4549513514809198,-1.4100638957021163,-0.05400484354714504,-0.8538133814388779,5.090193398230604,2.394604390954746,0.26926115024388686,2.4119917528359145,-4.527387887975087
2022-12-06 15:33:22.025,0.43912269334852466,-1.3891688707284024,-0.06643891654633177,-0.35497844562084285,5.054367774191842,2.633902977865414,0.2545248876628608,2.449231741733426,-4.366063192384226
2022-12-06 15:33:22.035,0.42298188007825765,-1.3702149455617638,-0.0792235921112937,0.12121579869884126,5.044740651049986,2.8853272887476136,0.24564041485686053,2.477327338941591,-4.196253646062929
2022-12-06 15:33:22.045,0.4064873053912364,-1.3532137875450447,-0.09207655017814607,0.5742627186786661,5.060140936186871,3.1459182797580483,0.23947508692719938,2.493172526965424,-4.019582599644548
2022-12-06 15:33:22.055,0.38953404870572667,-1.3379929010938214,-0.1046580903492976,1.004951694352394,5.097492188985786,3.411587546270235,0.2329839288531972,2.494310372621664,-3.837932600467892
2022-12-06 15:33:22.065,0.3719953747354377,-1.32423915778275,-0.11660665665420326,1.4149464742108182,5.1522068627144,3.677481671997536,0.22345894079008194,2.4791725406977236,-3.6533807605645294
2022-12-06 15:33:22.075,0.35375711200441196,-1.3115518368891288,-0.1275743719222019,1.8063622698496193,5.218696331971252,3.938421931879608,0.2087279629451681,2.4472073204442983,-3.4681122862947555
2022-12-06 15:33:22.086,0.3347400215721817,-1.299497985227626,-0.13725605079804395,2.181421608828796,5.290943448811808,4.189334657219791,0.18727921477206327,2.3988721550883003,-3.2843253206752028
2022-12-06 15:33:22.095,0.31491126595631236,-1.2876625060398748,-0.1454096132570621,2.542219524965373,5.363060595744416,4.425608230600934,0.1583031043243005,2.3355006924991892,-3.1041361349869794
2022-12-06 15:33:22.106,0.2942898102250732,-1.275688222573818,-0.15187095375131773,2.8905751086135005,5.429765246903622,4.643365674723262,0.12166291316716546,2.2590864211448642,-2.9294887297704966
2022-12-06 15:33:22.115,0.2729503237505049,-1.263305112978937,-0.15656748388109398,3.2279236771903452,5.486741258145563,4.839685518100511,0.07781863733824584,2.1720376379230815,-2.7620700786019667
2022-12-06 15:33:22.125,0.25102733359393536,-1.2503501804757744,-0.1595307924006072,3.555215895051854,5.5308888266162795,5.012798848907978,0.0277277910136327,2.076948059755648,-2.6032321226497284
2022-12-06 15:33:22.135,0.22871896429951513,-1.2367802308236906,-0.16090438430450604,3.872817882453145,5.560479931036891,5.162247695870049,-0.02726221025971255,1.9764045852093086,-2.4539227672197286
2022-12-06 15:33:22.146,0.206289518585688,-1.2226809323754395,-0.16094168710899012,4.180422175987734,5.575244503607966,5.28895771593295,-0.08552505666942582,1.8728325387528162,-2.314629341787874
2022-12-06 15:33:22.156,0.18407049590219704,-1.2082750779273697,-0.15999216974324393,4.476976221406506,5.57642290861798,5.3951855356462834,-0.14526998057814244,1.7683674510906868,-2.185339562395124
2022-12-06 15:33:22.165,0.1624578855393813,-1.1939289864871445,-0.1584764566321837,4.760639305782542,5.566803537156538,5.484331251166995,-0.20465966445547756,1.6647420108889146,-2.0655265812837547
2022-12-06 15:33:22.176,0.1419017939353779,-1.1801519209562679,-0.15685343421982453,5.028799748562882,5.550719705994455,5.560633538852042,-0.26192774128120344,1.5631838077769962,-1.9541645085946335
2022-12-06 15:33:22.186,0.12288549936910789,-1.1675825008364407,-0.1555837863124494,5.2781918380973005,5.533951701165059,5.628784129076161,-0.3154865244344199,1.4643293314901695,-1.849778831857548
2022-12-06 15:33:22.196,0.10589355748235144,-1.1569569183274104,-0.1550947665030736,5.505134148531244,5.523480784911287,5.693510962318247,-0.3640122976784921,1.368167738129068,-1.7505335223666574
2022-12-06 15:33:22.206,0.09137120284187598,-1.1490561090123188,-0.1557501040132657,5.705885580531759,5.527054518283977,5.759179968406605,-0.4064969564768494,1.2740295408351074,-1.654352193635214
2022-12-06 15:33:22.216,0.07968085163745513,-1.1446349595808694,-0.15782723551287287,5.8770848482611875,5.55255813830584,5.829454521219178,-0.44226086760182337,1.1806291071910353,-1.5590634082192742
2022-12-06 15:33:22.226,0.07106486736548732,-1.144344028387665,-0.16150182958502007,6.016198743267486,5.607254412129959,5.907032270140929,-0.4709303792241124,1.0861597640984724,-1.4625526160098083
2022-12-06 15:33:22.236,0.06562369062502751,-1.148657996724851,-0.1668379947779929,6.121878807666265,5.697015229472528,5.993456277836723,-0.4923904971844935,0.9884322685819391,-1.3628991280856306
2022-12-06 15:33:22.246,0.06331413505517458,-1.1578235022275114,-0.17378325959770125,6.194142424338253,5.825681353082059,6.088989173813532,-0.5067252047819557,0.885043183706581,-1.2584782615692778
2022-12-06 15:33:22.256,0.06396626095428955,-1.1718335615014956,-0.18216903784187402,6.234347710232875,5.994653013228127,6.19255233705011,-0.5141558231765343,0.7735573874420073,-1.14801637909791
2022-12-06 15:33:22.266,0.06731189470020013,-1.1904283550550685,-0.19171714760893369,6.244995428178045,6.202750877397375,6.301741363570863,-0.5149858855618862,0.6516873852414128,-1.0305970051491102
2022-12-06 15:33:22.276,0.07301671725352746,-1.213115906335838,-0.20205152335729662,6.229433497289113,6.4463155095103515,6.412916911519009,-0.5095602191130537,0.5174526669775277,-0.9056244285356472
2022-12-06 15:33:22.286,0.08071180543217236,-1.2392044052476785,-0.21271367621007978,6.191534029685836,6.719467314662872,6.521355038251806,-0.4982437542224139,0.3693069057215618,-0.7727537263359965
2022-12-06 15:33:22.296,0.09002660638303224,-1.2678409483341655,-0.22318095869259824,6.1353627571520875,7.014451127462244,6.621440693945288,-0.4814208412078398,0.20622915883495763,-0.6317936141998507
2022-12-06 15:33:22.306,0.10062905669243517,-1.2980570312666961,-0.23288732783293903,6.064803685561607,7.32203260913861,6.706895386235928,-0.45951002705469846,0.027784373202509642,-0.4825853439665585
2022-12-06 15:33:22.316,0.11227646406122797,-1.3288252654463453,-0.24124661514805035,5.983081910729059,7.6319689367466745,6.771035436337782,-0.43298441581028513,-0.1658355908893568,-0.32486278926891676
2022-12-06 15:33:22.326,0.12487190761319825,-1.3591297803043718,-0.24767828796982555,5.892174583104189,7.933598797110555,6.807059993327031,-0.4023856729054547,-0.3737786937441213,-0.1581087043846244
2022-12-06 15:33:22.336,0.13851004819096724,-1.3880446812465612,-0.251635597616129,5.792205875372573,8.216550748421762,6.80836914978769,-0.36832110577781096,-0.5945001177969683,0.01856385720046255
2022-12-06 15:33:22.346,0.1534935207491581,-1.4148087447324822,-0.25263639014073186,5.681012823172001,8.471487902773154,6.768913932254001,-0.3314368483693236,-0.825731132159554,0.2064677165156555
2022-12-06 15:33:22.356,0.17031174491122603,-1.4388869724830666,-0.25029738086485115,5.55404768014743,8.690779142109875,6.683584370108842,-0.29236478958667084,-1.064458952502797,0.40730448082032594
2022-12-06 15:33:22.366,0.18958924355163617,-1.4600161435956915,-0.24437177485653447,5.404646102747858,8.869039544314663,6.5486417694991506,-0.25164766977648206,-1.3069353879824375,0.6230229789074025
2022-12-06 15:33:22.376,0.21201674279732133,-1.4782327822491517,-0.23478706194969223,5.2245634246525325,9.003535065184211,6.362181217786206,-0.20965669247864832,-1.5487389694127394,0.8555845202708506
2022-12-06 15:33:22.386,0.23827396511014529,-1.4938773007710282,-0.22167635462420301,5.0046666342352735,9.09442812857714,6.124571986766901,-0.16652524339770988,-1.784917228364505,1.1066634611437283
2022-12-06 15:33:22.396,0.2689478724185732,-1.507564926286911,-0.20539518071374172,4.735726184917549,9.14478630396799,5.838791338542595,-0.12212430827889781,-2.0102270915684386,1.3773221728511316
2022-12-06 15:33:22.406,0.30445029018921377,-1.5201173624998157,-0.18651700862531453,4.409281051433304,9.16026307274443,5.510562197846099,-0.0760977232409306,-2.2194702427524406,1.6677050943014111
2022-12-06 15:33:22.416,0.344941647654465,-1.5324570803317263,-0.16580395197764558,4.018529419842948,9.148410752738396,5.148227402579615,-0.0279625273292979,-2.407892791102494,1.9767969603681672
2022-12-06 15:33:22.426,0.39026858502282785,-1.5454743119855847,-0.14415276700144805,3.559169747788444,9.1176651423209,4.762329958018002,0.022733437235702085,-2.5715947061872617,2.3022836647198632
2022-12-06 15:33:22.437,0.4399224700707132,-1.5598837193693367,-0.1225203691896043,3.030111544336292,9.07611350687355,4.364911588370812,0.07621636258380995,-2.707882373892423,2.6405409222026393
2022-12-06 15:33:22.446,0.49302614247872845,-1.576093575844233,-0.10183781240374011,2.433976052808376,9.030220056195303,3.9685920715798435,0.13228437625021552,-2.8155005923388594,2.9867594237911304
2022-12-06 15:33:22.457,0.5483572424300459,-1.594113064193048,-0.08292541041634419,1.7772950333357214,8.98373473946156,3.5855433272515844,0.19013675569233146,-2.894697602413165,3.335198412309712
2022-12-06 15:33:22.467,0.6044144699796221,-1.6135198341234247,-0.06642213827302995,1.0703103771766986,8.937022908999683,3.2265042604236145,0.2482720462366423,-2.947105518623909,3.67954385195166
2022-12-06 15:33:22.477,0.6595251927204344,-1.6334993509609403,-0.052738909121641746,0.32631769741751826,8.886997944929506,2.89997603856178,0.30448142508153747,-2.975453652305505,4.013333568376859
2022-12-06 15:33:22.487,0.7119812267570688,-1.6529514645387182,-0.04203979491145587,-0.4394038573053272,8.827715118662878,2.6116928465724287,0.35594552662136497,-2.9831646674707337,4.330401402378409
2022-12-06 15:33:22.497,0.760181195337279,-1.6706430163766162,-0.03425140074836866,-1.2109175709950741,8.751520917374137,2.364407636316635,0.3994256645177723,-2.9739030335082672,4.6252881756365465
2022-12-06 15:33:22.507,0.8027569506653816,-1.6853747658289742,-0.02909908676303697,-1.972989239055492,8.650508197353941,2.15799863049487,0.4315286814392158,-2.95114828383229,4.893570396631937
2022-12-06 15:33:22.517,0.8386653494927918,-1.696129448279357,-0.026166014629126683,-2.7122664664282135,8.517960270779367,1.9898816358853435,0.449016875636887,-2.917857240640417,5.132067149977916
2022-12-06 15:33:22.527,0.86723168352962,-1.7021742149643404,-0.024966005804600778,-3.4180992694986574,8.349486848072857,1.8556718536139156,0.44912896228244026,-2.87626351550345,5.338901535550687
2022-12-06 15:33:22.537,0.8881391336618757,-1.7031030767253725,-0.025017852640122726,-4.082875714887954,8.14364339935225,1.7499860036492851,0.4298772296273792,-2.8278369110710986,5.5134153647590605
2022-12-06 15:33:22.547,0.9013718668648575,-1.6988206719375092,-0.025909176892042876,-4.701843809828336,7.901962322229957,1.6672516792782048,0.3902912158721608,-2.77339082254925,5.655960835756226
2022-12-06 15:33:22.557,0.9071331561488625,-1.6894826742678826,-0.0273401880879321,-5.272535291652648,7.628475775001824,1.6024014592407232,0.33058556411556866,-2.7132932767723528,5.7676140730666585
2022-12-06 15:33:22.567,0.9057649236042299,-1.6754145963068876,-0.029141012190965005,-5.794026543900458,7.32892046158872,1.5513548012890277,0.25223411136617524,-2.647719920090492,5.849865663163012
2022-12-06 15:33:22.577,0.8976870295588155,-1.6570284603458139,-0.03126198851493311,-6.266278590428793,7.0098382167387205,1.5112335312820349,0.1579364409716658,-2.576890011202444,5.904338242174253
2022-12-06 15:33:22.587,0.8833606239366928,-1.634751354473022,-0.033742954454264396,-6.689686910161276,6.677739749453618,1.4803217620839852,0.05147562262984218,-2.501244453652112,5.932564823281995
2022-12-06 15:33:22.597,0.8632721996386109,-1.6089761755777727,-0.03667098195759111,-7.064847831674146,6.338447928503753,1.4578392978036565,-0.0625168624409379,-2.421548912903035,5.935844902466615
2022-12-06 15:33:22.607,0.837936389782576,-1.5800410505558775,-0.040135171638622395,-7.392511992034948,5.996706067423496,1.4436149877340763,-0.17886432579885575,-2.3389264269092473,5.915185258653224
2022-12-06 15:33:22.617,0.8079174376912139,-1.5482373232761395,-0.04418487303788459,-7.673722431916404,5.656091314153792,1.4377287050316525,-0.292191339183888,-2.25483586212738,5.871325577178348
2022-12-06 15:33:22.627,0.7738648136909446,-1.5138382569805302,-0.04879700100934513,-7.910132717158956,5.319200972153424,1.4401730760034965,-0.3972864892337037,-2.171012524372218,5.804839401997721
2022-12-06 15:33:22.637,0.7365499552816802,-1.4771343624927733,-0.05385826842072936,-8.104435064650415,4.988007128258839,1.450588308717526,-0.4894494137772771,-2.089378998824387,5.716287755304696
2022-12-06 15:33:22.647,0.6968862353017024,-1.4384594254109875,-0.05916593224062173,-8.26074695469474,4.664228978838817,1.4681236326139984,-0.5647892358618073,-2.011924963047793,5.606391205322851
2022-12-06 15:33:22.657,0.6559185960385073,-1.3981960194965417,-0.06444534409745845,-8.384784065809654,4.349579800577576,1.4914472528004914,-0.6204485698750252,-1.9405508605768633,5.476182398380549
2022-12-06 15:33:22.667,0.6147802534806182,-1.3567571601609831,-0.06937723933754182,-8.483718737077021,4.045806935878337,1.518872391599635,-0.6547405393970471,-1.8768763677785256,5.327107784265024
2022-12-06 15:33:22.677,0.5746240358952804,-1.3145476175786022,-0.07362530594634889,-8.56573416574298,3.7545150197986157,1.5485241140087862,-0.6672007996250352,-1.822028838327676,5.161061760406862
2022-12-06 15:33:22.687,0.5365412169545097,-1.2719149690538432,-0.07685642254822529,-8.639366805465928,3.4768255570412956,1.5784638021376125,-0.658566433368674,-1.7764400975366998,4.980352547804305
2022-12-06 15:33:22.697,0.5014813803349091,-1.2291061257682925,-0.07875136709482217,-8.712762572860182,3.212989691319274,1.6067211838643332,-0.6306956464612293,-1.7396846827481707,4.787611950177641
2022-12-06 15:33:22.707,0.47018454654695363,-1.1862458425115256,-0.0790097852040124,-8.792966519954584,2.9621122911911213,1.6312428356487363,-0.5864387111497731,-1.7103918688489663,4.585669720150462
2022-12-06 15:33:22.718,0.4431339361060196,-1.1433475205347197,-0.07735662507033293,-8.885339664110315,2.722129060476161,1.6498195305966878,-0.529465446616823,-1.686262591333621,4.377414466486887
2022-12-06 15:33:22.728,0.4205359697096749,-1.10035436736015,-0.0735564314219426,-8.99317541099913,2.490096049902057,1.66007529494085,-0.46404893688948673,-1.664215768318608,4.1656497653185065
2022-12-06 15:33:22.738,0.4023314197626943,-1.0571959019682116,-0.06743680102174383,-9.117576439341319,2.2627200299103762,1.6595761595686016,-0.39480329360164373,-1.6406677575177016,3.9529369921486452
2022-12-06 15:33:22.748,0.3882346791582995,-1.0138402848898986,-0.05891571408274694,-9.25761649237818,2.036949225428087,1.6460563359940819,-0.32638360419590773,-1.6119157621674196,3.741423838250125
2022-12-06 15:33:22.758,0.3777887764697598,-0.9703305021423514,-0.048022888388200104,-9.410727346150727,1.8104475880504591,1.6176963389484929,-0.26317618454339414,-1.5745653806968662,3.532683105770757
2022-12-06 15:33:22.768,0.3704187229871688,-0.926803925693174,-0.03490416349073628,-9.57316574928364,1.5818808904343897,1.573347644315054,-0.20902078048877765,-1.525929845869137,3.3275903159761446
2022-12-06 15:33:22.778,0.36546927614818203,-0.8835007368215942,-0.019801892105652252,-9.740395917651945,1.3510430894661776,1.5125965366263057,-0.16700368456833914,-1.464338466757705,3.12624813721713
2022-12-06 15:33:22.788,0.36222433016478656,-0.8407655073525038,-0.00301461632745003,-9.907289613928329,1.1188794949706766,1.4356177442515197,-0.13934334075365928,-1.3893147178714969,2.9279526080022413
2022-12-06 15:33:22.798,0.35991860696505934,-0.7990423941490221,0.015148791947742631,-10.068170976246057,0.8874356664527375,1.3428810087918372,-0.12736371431272783,-1.3016062831787774,2.731201448552135
2022-12-06 15:33:22.808,0.35775978601630626,-0.7588638375855801,0.034401073901749346,-10.216853179262,0.6597333188134266,1.2348715589357713,-0.13152712297941418,-1.203064776096105,2.5337558334883665
2022-12-06 15:33:22.818,0.35497515218224585,-0.7208366494855328,0.05448306925034291,-10.346849563073397,0.43959246841900274,1.1119853920251686,-0.15148980534780018,-1.0963860742128786,2.332771218125807
2022-12-06 15:33:22.828,0.3508833135385193,-0.685631696313383,0.07514699773927458,-10.45186203032587,0.23146202571355665,0.9746547242459153,-0.1861519083225712,-0.9847375123342831,2.125004985763355
2022-12-06 15:33:22.838,0.3449759543100853,-0.6539788442749505,0.09612718466910927,-10.526497144907967,0.04031769187883648,0.8236371158596738,-0.2336895890665992,-0.8713138982753363,1.9070914352272843
2022-12-06 15:33:22.848,0.33698539178149467,-0.6266613159153932,0.11710879156889856,-10.56701869713183,-0.1283802078250598,0.6603553911441838,-0.29157136582359,-0.7588756977293192,1.6758552928632533
2022-12-06 15:33:22.858,0.32691589206580135,-0.6044999050825716,0.1377033981222217,-10.571892693207001,-0.2687430239552772,0.4871934972256283,-0.35657199435857206,-0.6493262554235695,1.4286210495567964
2022-12-06 15:33:22.868,0.3150280172078381,-0.5883193721301718,0.15744061237687387,-10.541940445112301,-0.3746161213097777,0.30766600308291,-0.4248058298969757,-0.543380120986067,1.163471471437771
2022-12-06 15:33:22.878,0.3017788549685896,-0.5788953092723145,0.17578235652599125,-10.480041218495336,-0.43990891673679394,0.12638303994392405,-0.4918044594965788,-0.4403646501827219,0.8794151169008505
2022-12-06 15:33:22.888,0.2877317129534093,-0.576887421557001,0.1921588123679989,-10.390451337876677,-0.4590902761320112,-0.05122063836421846,-0.5526573031753305,-0.33818615040548267,0.5764380278656048
2022-12-06 15:33:22.898,0.27345562621313424,-0.5827705244965847,0.20601830352745565,-10.277896556473543,-0.4277769608170194,-0.2193453011264102,-0.6022226691944343,-0.23348040998301375,0.2554372819132813
2022-12-06 15:33:22.908,0.2594387191488316,-0.5967759458161472,0.21688229174039844,-10.146648467905951,-0.34330541294029226,-0.37238345403585704,-0.6354061810069851,-0.12195184709328448,-0.08193882707336654
2022-12-06 15:33:22.918,0.2460393578946752,-0.618856395843517,0.22439846657932966,-9.999822102463655,-0.20516917796894296,-0.5054894516474653,-0.6474939644968827,0.0011184047267978829,-0.43349487459331815
2022-12-06 15:33:22.928,0.23349096121927687,-0.6486865441375413,0.22838556157994994,-9.839110240681272,-0.015196673413344752,-0.6150920119798625,-0.6345166263169003,0.1402464842741604,-0.7966771015833625
2022-12-06 15:33:22.938,0.2219582152944918,-0.6857034554924439,0.22886252331140122,-9.665055420957477,0.22263233440135777,-0.6992801417345368,-0.5936074281259516,0.29908327100348236,-1.1686971773414145
2022-12-06 15:33:22.948,0.21162180715755777,-0.7291758509410555,0.22605456146105743,-9.477762675570427,0.5027238916161406,-0.7579873605377739,-0.5233099400572704,0.4798150298896241,-1.5465675416979476
2022-12-06 15:33:22.958,0.20275847538327296,-0.7782801234773281,0.22037248310879567,-9.277780980919106,0.8186053761484601,-0.7929171572619549,-0.4237927955518615,0.682724827992331,-1.9270573285549193
2022-12-06 15:33:22.968,0.19578801837190565,-0.8321627108367047,0.21236880135913236,-9.06683794916077,1.1636383876968595,-0.8072117930833833,-0.2969420977869373,0.9059875804279223,-2.306604790329421
2022-12-06 15:33:22.978,0.1912722208649303,-0.8899781292662451,0.20267960838548654,-8.848199465749357,1.531542521224297,-0.8049380955056543,-0.14632011411142057,1.1457296348104153,-2.6812359119814917
2022-12-06 15:33:22.988,0.1898638972158664,-0.9508996240252577,0.19196241355882018,-8.62655842462345,1.9166571549936826,-0.7904998032772368,0.023003727855760988,1.396335676581804,-3.046537511501353
2022-12-06 15:33:22.999,0.19221478513875748,-1.0141025318109664,0.18083911144408626,-8.407470795444041,2.313920632932265,-0.7680805418583219,0.20472995923313272,1.650943702143203,-3.397718451198875
2022-12-06 15:33:23.008,0.19885976888599965,-1.0787244011985113,0.1698518428855896,-8.196448984790198,2.71857179673978,-0.7412036099822955,0.3916863589770781,1.9020434432682631,-3.72976930449425
2022-12-06 15:33:23.019,0.21010088661617332,-1.143813078040183,0.1594362233634657,-7.99789862478822,3.125632921275835,-0.7124709568008819,0.5762361868256607,2.1420908904339635,-4.037706290122334
2022-12-06 15:33:23.029,0.22591523939201605,-1.208279694040454,0.1499104832795647,-7.814125958473392,3.5293088706513607,-0.6834949440876008,0.7507141716784522,2.364069641295242,-4.31686660742002
2022-12-06 15:33:23.039,0.2459059139051493,-1.270873774036793,0.14147418343461726,-7.6446283719801285,3.9224782013954993,-0.6549711766189277,0.9078750038634118,2.5619593717266036,-4.563212953300393
2022-12-06 15:33:23.049,0.26930668117371415,-1.3301945609548962,0.13421009106798917,-7.485819385215982,4.296440827133114,-0.6268043030300972,1.041341364974463,2.731100408515877,-4.773604878852979
2022-12-06 15:33:23.059,0.29504195707421516,-1.3847488507728876,0.12808621632690642,-7.331257736597756,4.641056750910274,-0.5982149660661407,1.1460334071529994,2.8684610661746035,-4.946002030249074
2022-12-06 15:33:23.069,0.3218338054410003,-1.4330583444609721,0.12295834184804003,-7.17236339817069,4.945367850661352,-0.5677987161797045,1.2185526450823483,2.9728160275962074,-5.079577297186962
2022-12-06 15:33:23.079,0.34833736064767407,-1.4738056739544914,0.11857548591076399,-6.999508211222604,5.1986982084385955,-0.5335440020911266,1.257483361995865,3.044830269321378,-5.174734004308744
2022-12-06 15:33:23.089,0.37327796454872564,-1.5059931062678462,0.11459205971153291,-6.803270699205469,5.392074529940843,-0.49284054399604793,1.2635668666238393,3.0870225356043894,-5.233036521464931
2022-12-06 15:33:23.099,0.3955639982390095,-1.5290813344723053,0.11059053771293549,-6.5755913258376335,5.519679666429225,-0.4425247681970067,1.239704957607821,3.103571897921065,-5.257073352390955
2022-12-06 15:33:23.109,0.4143609388227466,-1.543080707364272,0.10611598576519267,-6.310614433741324,5.580030613636034,-0.379007814440519,1.1907650827644827,3.0999446279379534,-5.250272963208129
2022-12-06 15:33:23.119,0.4291270625239913,-1.5485781043548774,0.10071850725932639,-6.005140521495644,5.576647365317176,-0.2985007130242675,1.1231901340797403,3.0823549037418108,-5.216687085723088
2022-12-06 15:33:23.129,0.4396194557578024,-1.546693795632457,0.09399444451696395,-5.65874115734894,5.518086071228217,-0.19729600645767922,1.0444520569031495,3.0571159445066307,-5.160750340988091
2022-12-06 15:33:23.139,0.4458782442890735,-1.5389730805318707,0.08561665092915764,-5.27363328862606,5.417313638008288,-0.07202572238789343,0.9624187420014881,3.02997010900033,-5.087024808372952
2022-12-06 15:33:23.149,0.4481923111410623,-1.5272277217681318,0.0753489329548056,-4.854380316637402,5.290502652073897,0.0801699310989337,0.8847168619353476,3.0054953479718316,-4.999942963296179
2022-12-06 15:33:23.159,0.44704705621529633,-1.5133507552352685,0.06304556385726068,-4.407441458111421,5.1554226428504375,0.26157777764309526,0.818162491934581,2.9866682559048927,-4.903564232343455
2022-12-06 15:33:23.169,0.44305615200499404,-1.4991319797162965,0.04864072313819317,-3.9405750246495876,5.029673441154228,0.47392227877792337,0.7683043345669542,2.9746294578185597,-4.801358448468487
2022-12-06 15:33:23.179,0.4368826877146566,-1.4860977894438185,0.032135371940645495,-3.4621229415198367,4.929016463828581,0.7183984985124314,0.7391014718198378,2.96866038737626,-4.696035292233034
2022-12-06 15:33:23.189,0.4291574562609521,-1.4753901233711082,0.013590156422745827,-2.9802344373998513,4.865999038438913,0.9956589651887049,0.7327442164462139,2.9663509267363697,-4.589449180636775
2022-12-06 15:33:23.199,0.42040353124191954,-1.4676915531258166,-0.006869456051530914,-2.5021039162374312,4.848978358951188,1.3056902946439866,0.7496115422421904,2.963917132572758,-4.482602931877175
2022-12-06 15:33:23.209,0.41097796759828503,-1.463199599446136,-0.02903518228846072,-2.033312063400157,4.881594460213616,1.647553942666698,0.7883432392688987,2.9566208384106196,-4.375748917462048
2022-12-06 15:33:23.219,0.40104125007719316,-1.4616496166709383,-0.05259032162507353,-1.5773730588683712,4.962712444707628,2.01902425256527,0.8460004654090869,2.9392490721132725,-4.268562882962264
2022-12-06 15:33:23.229,0.39056002294539033,-1.4623802787843967,-0.07708567353144682,-1.1355744396441052,5.086812092804114,2.4162078224998274,0.9182937954159123,2.9066228612339398,-4.160355013445421
2022-12-06 15:33:23.239,0.37934023572715214,-1.4644315731832693,-0.10192693747553952,-0.7071344603724411,5.244751886149712,2.8332534006165204,0.9998651990916743,2.854112518967221,-4.050283644814013
2022-12-06 15:33:23.249,0.36708124651941604,-1.4666634345099947,-0.12638102752182348,-0.2896253875185575,5.424803187109906,3.2622532417773473,1.084614911755949,2.7781359805834556,-3.937543829910519
2022-12-06 15:33:23.259,0.3534403934221047,-1.4678832435921922,-0.14960417875696613,0.1204336889618329,5.613840217810242,3.6933988772181103,1.1660640963275641,2.676609338712936,-3.8215109721255254
2022-12-06 15:33:23.269,0.33810041365613025,-1.4669725000807927,-0.17069067719492884,0.5269040284161592,5.798580219389809,4.115405555601264,1.2377402280169414,2.5493092086912483,-3.7018276633538063
2022-12-06 15:33:23.280,0.3208327452062061,-1.4630047300402043,-0.1887388056099439,0.9333386407631814,5.9667924621697,4.516181680293895,1.2935668519145547,2.398100540842498,-3.5784319221270597
2022-12-06 15:33:23.290,0.3015463948626763,-1.4553449797842712,-0.2029288841832923,1.342353230709545,6.10840120529401,4.883696194565367,1.328234929715388,2.226984640832829,-3.451537836283438
2022-12-06 15:33:23.299,0.2803112883775576,-1.4437186684071481,-0.21260587887000834,1.7551671435998233,6.216379355495347,5.206971746413331,1.3375311497887385,2.0419338187042957,-3.321590033221831
2022-12-06 15:33:23.310,0.257352010622706,-1.428240254753523,-0.21735759073648045,2.1714106390509693,6.287314627344292,5.4771036122217485,1.31860113142007,1.8505035534991523,-3.1892147480215964
2022-12-06 15:33:23.320,0.2330184390174915,-1.4094006128375973,-0.217079912081047,2.589209276815449,6.321580204504774,5.688196183392276,1.270131416032636,1.6612461781984822,-3.055182005511594
2022-12-06 15:33:23.330,0.20774587375188505,-1.388019434336318,-0.21202105606952162,3.005462747329636,6.323130406261609,5.838117142710737,1.1924399863354556,1.4829815325772508,-2.9203814886135326
2022-12-06 15:33:23.340,0.18201568244982172,-1.3651705098540754,-0.20279662427795275,3.416202953208657,6.298993744794116,5.9289719996646735,1.0874697332207752,1.3240006777382225,-2.7858052204217847
2022-12-06 15:33:23.350,0.15632182779576878,-1.3420863725974508,-0.19036906063088094,3.8169496408916452,6.258530571315719,5.967207633286327,0.958684446120889,1.1912860452086462,-2.652525921188434
2022-12-06 15:33:23.359,0.13114430833905819,-1.32004932942473,-0.1759891480219811,4.203033178244097,6.212509421555895,5.963284968786707,0.8108706381572517,1.089826315810134,-2.5216584130897215
2022-12-06 15:33:23.369,0.1069292860878548,-1.3002784856288223,-0.16110217023049075,4.569880787177483,6.172069996649012,5.9309135299369204,0.6498449817197791,1.022086839886434,-2.394287152107342
2022-12-06 15:33:23.380,0.08407592291099829,-1.2838249790989278,-0.147225914782078,4.913262712198492,6.147668994161152,5.885895068715782,0.48206441795303406,0.9876752126266057,-2.27134209211635
2022-12-06 15:33:23.390,0.06293017669662838,-1.271489329891474,-0.13581228698751197,5.2294865294329185,6.148130923601478,5.844673565601677,0.3141565330643863,0.9832346964683417,-2.153425013028421
2022-12-06 15:33:23.400,0.04378524665363151,-1.2637737573390113,-0.12810925964635336,5.51552408682354,6.179938917791946,5.822742822955452,0.1524254324844714,1.0026002925413993,-2.0406216869508444
2022-12-06 15:33:23.410,0.026886536535707984,-1.26087625012119,-0.1250428748583066,5.769065719666558,6.246875624714901,5.833114017141081,0.002406270627727777,1.03723480097036,-1.9323503694633586
2022-12-06 15:33:23.420,0.012436965116994048,-1.2627234302053496,-0.12713669473800704,5.988520268728512,6.350049643016146,5.8850603844699725,-0.13147155748383227,1.0769203241406724,-1.827286959721855
2022-12-06 15:33:23.430,0.0005982758445592811,-1.2690297726040516,-0.1344781174327422,6.172998559931385,6.488247790779982,5.983308837536246,-0.2460781349719716,1.1106365092874801,-1.7233889581578306
2022-12-06 15:33:23.440,-0.00851346600038096,-1.2793641859834453,-0.14673093453699954,6.322313340524169,6.658473362376646,6.127753326194629,-0.339626247480073,1.1275260240745124,-1.6180210217419795
2022-12-06 15:33:23.450,-0.014835726953991267,-1.2932033420849478,-0.1631858633818834,6.436998867057842,6.856483168703815,6.31366512733668,-0.41158240109964156,1.1178352212085312,-1.508163479571472
2022-12-06 15:33:23.460,-0.018364303717835144,-1.309956828803249,-0.18283747205552295,6.51831285553807,7.077142879878012,6.532307008159842,-0.4624820682364805,1.0737243493389828,-1.390664919619273
2022-12-06 15:33:23.470,-0.01914693950403718,-1.3289620681354746,-0.20447561093993022,6.568153572502765,7.31450082209886,6.771828837175562,-0.49369319358514696,0.9898621030042419,-1.2624846132275136
2022-12-06 15:33:23.480,-0.017258975711168075,-1.3494622959331557,-0.22677990489547295,6.588820700834252,7.561618543207917,7.018314558875999,-0.507172131365528,0.8637497426739142,-1.1208679584326868
2022-12-06 15:33:23.490,-0.012759236577238943,-1.3705913643749343,-0.2484071515132576,6.582575499755763,7.810333604541389,7.256850560414402,-0.5052502217215055,0.6957601807851944,-0.9634204685455656
2022-12-06 15:33:23.500,-0.005633269230724703,-1.3913888387630096,-0.2680655399785783,6.551018964466286,8.05119589380969,7.472505308563182,-0.4904745098943005,0.4889209756255486,-0.7880884379706472
2022-12-06 15:33:23.510,0.004258469920444604,-1.410857396072972,-0.28457597299058646,6.494404548320953,8.273771993862283,7.651164230983019,-0.4655032813793297,0.24850475901770225,-0.5930938237776298
2022-12-06 15:33:23.520,0.01720432859210235,-1.4280582921183087,-0.2969258255179443,6.41109680964225,8.467373614351013,7.780232780445159,-0.43303475422119875,-0.018490669856065785,-0.37689223471174454
2022-12-06 15:33:23.530,0.033619423374759795,-1.4422281529365928,-0.30432087376349437,6.297406717376755,8.622115891047264,7.8492625055203264,-0.39573674158596567,-0.30389366630411746,-0.13822116544162652
2022-12-06 15:33:23.540,0.053975119228781,-1.4528936528567562,-0.30623609974911575,6.147938686829307,8.730116819518516,7.850542074385624,-0.35615061374534085,-0.5988970762987312,0.12372810750799645
2022-12-06 15:33:23.550,0.07869263093497676,-1.4599565256049043,-0.30245804471652044,5.956425435388623,8.786599455846131,7.77963187629139,-0.31656228064905445,-0.8945848803256541,0.40903604985988884
2022-12-06 15:33:23.560,0.10802294077469636,-1.4637217112630374,-0.2931056811337572,5.716893502910339,8.790627385934066,7.635744706884313,-0.2788618755127914,-1.182456448885714,0.7167365464491843
2022-12-06 15:33:23.570,0.14193964100622927,-1.4648526666487316,-0.27861828840506647,5.424925123049096,8.745235903851672,7.421842037239226,-0.24443720201726718,-1.4549267592960637,1.044523792943609
2022-12-06 15:33:23.580,0.1800710435487378,-1.4642587348553222,-0.2597073450263114,5.0787462078517,8.656865783615773,7.144358175225009,-0.21414318616688494,-1.7057618764319127,1.3885597004644312
2022-12-06 15:33:23.591,0.22169037512109455,-1.4629395237581901,-0.23727971401571252,4.679888194758542,8.534213096022778,6.812560529084746,-0.18836112096127583,-1.9304150451704976,1.7434577429953193
2022-12-06 15:33:23.600,0.2657683787216453,-1.461821452265783,-0.21234590367946632,4.2332686836155125,8.386769915757444,6.4376463965521,-0.1671287376487405,-2.126234235620375,2.102492247828724
2022-12-06 15:33:23.611,0.31107708402266043,-1.461620105171667,-0.18592805547573568,3.746684849505601,8.223386867332671,6.0317231720350994,-0.15030165417814298,-2.2925141100576223,2.4580317438966306
2022-12-06 15:33:23.621,0.35632251124926956,-1.462751103497147,-0.158979357171221,3.2298502327734115,8.051140379261469,5.606816262073126,-0.1377023731258467,-2.4303769587605966,2.8021435759206472
2022-12-06 15:33:23.631,0.4002790082803454,-1.4652963530005194,-0.13232273234940858,2.6931965318221205,7.874662586973668,5.174020340119252,-0.129222193593561,-2.542488400597297,3.127279473044901
2022-12-06 15:33:23.641,0.4418995880016178,-1.469018972047435,-0.10661337286917634,2.146700092257462,7.695944226314591,4.742875681590863,-0.12485813171215004,-2.6326370905457153,3.426935071815303
2022-12-06 15:33:23.651,0.48038578811216226,-1.4734145775033427,-0.08232676132808354,1.5989574042714778,7.514522685519565,4.321017585788472,-0.12468420048085622,-2.7052281000575227,3.696183130471685
2022-12-06 15:33:23.661,0.5152131509768237,-1.4777873121158365,-0.0597705777655551,1.0566294572476849,7.32794744588163,3.9141104842976073,-0.12877057438770287,-2.7647540772161725,3.9320070735570787
2022-12-06 15:33:23.671,0.5461174966614554,-1.4813402093808068,-0.039115147982140754,0.524263321382781,7.132433014195804,3.5260367803998207,-0.13707484375940812,-2.8153126144491276,4.133399749353248
2022-12-06 15:33:23.681,0.5730505260678088,-1.4832688296868384,-0.020434221267604753,0.004438578049131428,6.923615193563912,3.1592699372044315,-0.14933505190363622,-2.860228322986596,4.301231161482518
2022-12-06 15:33:23.691,0.5961143797075285,-1.4828467656345483,-0.0037477592200724813,-0.5018295819404288,6.697315130730933,2.815339287152145,-0.1649916393010612,-2.90181516197459,4.437920896075562
2022-12-06 15:33:23.701,0.6154867515279623,-1.4794944097831397,0.010939150983041731,-0.994511462134136,6.4502151078047625,2.4953020677822195,-0.183155311951301,-2.9412863230487343,4.546973448183569
2022-12-06 15:33:23.711,0.6313502243237653,-1.4728283704353158,0.023604907945132907,-1.4739166676458249,6.1803840882374415,2.2001635795515613,-0.20262552887578217,-2.9787954829428216,4.632447514056582
2022-12-06 15:33:23.721,0.6438386573802258,-1.4626938996212768,0.03419140463594296,-1.9401094637383949,5.887647394789215,1.931201330643808,-0.22195644451785257,-3.0135814867925563,4.698433287152658
2022-12-06 15:33:23.731,0.6530081399035453,-1.4491817135708351,0.042600891317349066,-2.392496024307933,5.573822578462191,1.690141070032427,-0.2395651855833095,-3.0441846568383566,4.748603238242458
2022-12-06 15:33:23.741,0.6588323419388563,-1.432625513993225,0.04871417268827268,-2.829632666865234,5.242811300317814,1.479124161320365,-0.2538754846346742,-3.0686959970111496,4.785881075190404
2022-12-06 15:33:23.751,0.6612169569212712,-1.4135755171725186,0.05242878260332224,-3.2492352705674503,4.900493129434392,1.3004361274244178,-0.26348329819891797,-3.0849949215829486,4.812248069082081
2022-12-06 15:33:23.761,0.6600287329017138,-1.392749599826195,0.05370761630533106,-3.6483424165013245,4.554386546230503,1.1560420150622348,-0.2673220446346858,-3.0909439323853145,4.828687992095655
2022-12-06 15:33:23.771,0.6551394171822241,-1.3709707162400964,0.05262239033920472,-4.02361455473713,4.213118091961121,1.0470548548648564,-0.2647976326136156,-3.0845381809048678,4.835263882485372
2022-12-06 15:33:23.781,0.6464874361185343,-1.3491006663843303,0.04937550405543016,-4.37179976067673,3.8857936903632666,0.9733063191522536,-0.255861949418075,-3.06403205287591,4.831313780738621
2022-12-06 15:33:23.791,0.6341541613065366,-1.3279782952307184,0.044290697495256826,-4.690393993312998,3.5813634767158495,0.9331701326581401,-0.24100236156883512,-3.0280670235784575,4.815741560509953
2022-12-06 15:33:23.801,0.6184381555902188,-1.3083685605734254,0.03777552319776567,-4.978426225684559,3.3080546187891122,0.9236994023882041,-0.22114353381012739,-2.9758058003781214,4.787362324009239
2022-12-06 15:33:23.811,0.5999016840192837,-1.2909250420583707,0.0302697337000883,-5.2371591690558175,3.072930602962955,0.9410135163730381,-0.19747941027266086,-2.9070533985646785,4.7452469315873955
2022-12-06 15:33:23.821,0.5793705865332364,-1.2761612097611952,0.022196326408721344,-5.470454774490534,2.8815819752947265,0.980784869439858,-0.17126868840520054,-2.822334201350498,4.689008213235865
2022-12-06 15:33:23.831,0.557886267820146,-1.2644220698213853,0.013925878735413838,-5.684673943785565,2.7378824490440965,1.0386811830704683,-0.14363205006994403,-2.7229000118118045,4.61898501641244
2022-12-06 15:33:23.841,0.5366212767701136,-1.255851734134526,0.00575695987453888,-5.88814870134984,2.6437344065316988,1.1106904182714823,-0.11538640832152636,-2.610660810723544,4.536301487906749
2022-12-06 15:33:23.851,0.5167721462589091,-1.2503590024146667,-0.0020871936372441656,-6.090346012579047,2.598782587497864,1.1933128316038828,-0.08694575851617954,-2.488048437645175,4.442799974770763
2022-12-06 15:33:23.861,0.499442438075583,-1.247588237285529,-0.009444349651440673,-6.300842118892434,2.6001337108625475,1.283605731289098,-0.05831072324135882,-2.3578368156760323,4.340864619932286
2022-12-06 15:33:23.871,0.48553122794525616,-1.2469070370466824,-0.01618166130708036,-6.528230120325765,2.6421656045734316,1.3790549039046534,-0.029155821261007294,-2.222946681657947,4.23316871812258
2022-12-06 15:33:23.881,0.47564512636642786,-1.2474236074626857,-0.02215414289253911,-6.779116572490615,2.7165442714667254,1.4772839995840576,0.0009970497433918724,-2.086258558400962,4.122390622913521
2022-12-06 15:33:23.892,0.47005104237007644,-1.2480421286884296,-0.02716779542406141,-7.057385360274241,2.8125612396879522,1.575693350970234,0.0325532706483323,-1.950447930501106,4.010946685500318
2022-12-06 15:33:23.902,0.46868023916610463,-1.2475543533861788,-0.0309623282457194,-7.363884519341936,2.9178360949826105,1.6711753602720214,0.06561764923739437,-1.8178406239127507,3.900777736210472
2022-12-06 15:33:23.912,0.4711806214885178,-1.2447543264165846,-0.03322048136605843,-7.696605298100807,3.019321754419332,1.760029721610268,0.09981404704912443,-1.6902700557562074,3.793198322044802
2022-12-06 15:33:23.921,0.4769970371567854,-1.238556729416996,-0.03360005706286906,-8.051268246263463,3.1044516641722533,1.8381108093741565,0.13418962156891973,-1.5689268517065786,3.688796212274017
2022-12-06 15:33:23.932,0.48545055119045416,-1.2281029584038237,-0.03177838393188693,-8.422075533737107,3.1622409863064633,1.9011470076734178,0.16721989503604742,-1.454231761676824,3.587370665092101
2022-12-06 15:33:23.942,0.4957963016878349,-1.2128494245800152,-0.02750013038080752,-8.802360306824529,3.1842248781951352,1.9451388653873183,0.19691090682319967,-1.3457882485940262,3.4879088615955665
2022-12-06 15:33:23.952,0.507257906648457,-1.1926384130249035,-0.02062399021623188,-9.184999180668044,3.165216378041225,1.9667749351403077,0.22098389575061936,-1.2424452757490652,3.388601901759237
2022-12-06 15:33:23.962,0.5190481095809389,-1.1677467746731316,-0.01116488915178717,-9.562624596592135,3.103883285552696,1.9638422060214025,0.23712531220731164,-1.1424521578871385,3.286894842576338
2022-12-06 15:33:23.972,0.530385468952169,-1.1388992666243956,0.000674903579593455,-9.927744215580269,3.003066604383666,1.9355967387503494,0.24328075132124183,-1.0436601095768867,3.1795617520050197
2022-12-06 15:33:23.982,0.5405127107057208,-1.1072329162761794,0.014494282877178515,-10.27285112100079,2.869700573943072,1.883021458732706,0.23795891620643245,-0.9437279377113172,3.06280629364001
2022-12-06 15:33:23.992,0.548719226791385,-1.0742073938881966,0.029707094659575474,-10.590569185776278,2.7142299441767,1.8088926439081794,0.220499958510148,-0.8403031432921729,2.9323991626721564
2022-12-06 15:33:24.002,0.5543673962721946,-1.0414668124237696,0.04558178070168137,-10.873849691368779,2.5495212347530316,1.7176140670985347,0.19126502982146196,-0.7311619689819382,2.7838579000547776
2022-12-06 15:33:24.012,0.5569194825466608,-1.010666906009416,0.061303310241330816,-11.116206019297081,2.3893603739501224,1.614823314906643,0.15171641847732284,-0.614311440794731,2.61266382489087
2022-12-06 15:33:24.022,0.5559606696776409,-0.9832904016168558,0.07605113509196033,-11.311948818932349,2.246708464043854,1.5068085242414233,0.10436934271745321,-0.48808064008663665,2.414509950285303
2022-12-06 15:33:24.032,0.5512156638294576,-0.9604834647798394,0.08908481402431533,-11.456382365905498,2.131977875702295,1.3997974470290369,0.05260922102753862,-0.35123246910672046,2.1855721384668487
2022-12-06 15:33:24.042,0.5425609376385275,-0.942951390983617,0.09982622153780879,-11.545951061819727,2.0516797781527054,1.2992027427272788,0.0003874817229566342,-0.2031046352805697,1.9227892890000442
2022-12-06 15:33:24.052,0.5300392725534822,-0.9309418266385222,0.10792410655927359,-11.578375602767396,2.0078005689114633,1.20893774339366,-0.04816748539441951,-0.04375859852506818,1.6241378465016378
2022-12-06 15:33:24.062,0.5138815334048691,-0.9243146357417755,0.11328711191788253,-11.552849771787875,1.9980935183383912,1.1309421304357667,-0.08916815660366519,0.1259048515991641,1.2888901195354505
2022-12-06 15:33:24.072,0.4945296513249151,-0.9226627141057463,0.11607903455441088,-11.470317356966492,2.0171388122346405,1.0650303021571135,-0.11935337273698055,0.3041061043249026,0.9178442215147414
2022-12-06 15:33:24.082,0.47264283389394574,-0.9254324472441102,0.11668180153080517,-11.33372089752751,2.0577258164672263,1.009078918189125,-0.1363931319378403,0.4882480184286395,0.5135040716224073
2022-12-06 15:33:24.092,0.4490685986498482,-0.9320067260402338,0.11563918006487457,-11.148025159459968,2.1120682683787573,0.9594628748641031,-0.13908585828530573,0.6750782127508597,0.08017258852471497
2022-12-06 15:33:24.102,0.4247730064481111,-0.941741864533204,0.113593966549278,-10.919867098079127,2.172580670257238,0.9116037113362845,-0.12743965923808823,0.8609410244842632,-0.3761037366738127
2022-12-06 15:33:24.112,0.4007403413972159,-0.9539697241907279,0.11122629395507344,-10.65683312738666,2.2322105671426784,0.8605218629460952,-0.10263984267175087,1.0421051168132944,-0.8478101146171616
2022-12-06 15:33:24.122,0.3778626872702302,-0.9679819026426767,0.10919560531920752,-10.366503016738825,2.284458490333834,0.8013433731676775,-0.06691125498522443,1.215130989148742,-1.326470991628394
2022-12-06 15:33:24.132,0.35684350620283145,-0.9830134274614811,0.10808706773781904,-10.055472592291196,2.323241764952249,0.7297549717891476,-0.023289961927679233,1.377209096148869,-1.8032991833625711
2022-12-06 15:33:24.142,0.33813751905110645,-0.9982442258677675,0.10836461294735902,-9.728584586277005,2.3427709804240475,0.6424062922950609,0.024673992178041834,1.5263974337264763,-2.2698461123005815
2022-12-06 15:33:24.152,0.3219405722061823,-1.0128323267388724,0.11033429156211816,-9.388559694780358,2.3376129382511577,0.5372413956492038,0.07325345468148,1.6617210465370966,-2.718539018676031
2022-12-06 15:33:24.162,0.30822840914363886,-1.0259807532576835,0.11412101745412262,-9.036112649528798,2.303046398084982,0.4137343660322209,0.11888601962778512,1.783130472959534,-3.1430373885101455
2022-12-06 15:33:24.172,0.29682882370910496,-1.0370274055643525,0.11965962063500857,-8.670487808536064,2.235688574010373,0.2730140419020519,0.1584863726613462,1.8913393460583818,-3.5383844422824553
2022-12-06 15:33:24.182,0.28750504841020397,-1.0455410335175133,0.12669875547299184,-8.29023144601385,2.134266576140415,0.11788112962195094,0.1897027916116437,1.9875811908612973,-3.9009842121990674
2022-12-06 15:33:24.192,0.2800308208853985,-1.0514063429673097,0.13481459015479186,-7.893989305166162,2.0003752176382092,-0.047261147576173085,0.2111046285259748,2.0733386422758673,-4.228481398536109
2022-12-06 15:33:24.202,0.274244814598516,-1.0548827539699102,0.14343183950980393,-7.481165074755584,1.8390729073944736,-0.2165348050271471,0.2222960970675021,2.150093095133202,-4.519612804582929
2022-12-06 15:33:24.213,0.2700793200991657,-1.0566224933984618,0.15185330012192738,-7.052347857432,1.6591772245297167,-0.3827669211603136,0.22395100652306585,2.219121428052538,-4.774048371071898
2022-12-06 15:33:24.223,0.2675632439401165,-1.0576376353018397,0.1593024682063197,-6.6094801671732855,1.4731344727462723,-0.5377595623558333,0.21776056718505699,2.2813452812745902,-4.992215294731823
2022-12-06 15:33:24.233,0.2668021481067983,-1.0592147535118137,0.16498227990810044,-6.1557795512871385,1.2963913602484245,-0.6727085721034713,0.20628965702513188,2.3372272332612947,-5.175114457405395
2022-12-06 15:33:24.243,0.2679389853901526,-1.0627867356460818,0.16814627064104468,-5.695443325862424,1.1462966927635763,-0.7787908055477403,0.19274637030036937,2.386706469200082,-5.324152721799868
2022-12-06 15:33:24.253,0.271100354491649,-1.0697784160571169,0.1681715346401633,-5.233171902408283,1.0406582895748058,-0.8478635148939978,0.18068291022060057,2.429171159199635,-5.44101143795532
2022-12-06 15:33:24.263,0.2763353077880292,-1.081444353506015,0.1646204223563569,-4.773561678435996,0.9961283599471978,-0.8731625651735665,0.1736593393670787,2.4634713853302195,-5.527561287345869
2022-12-06 15:33:24.273,0.2835563430129343,-1.098716735047509,0.1572802936378547,-4.320443531964568,1.0265938210267704,-0.8498777168693589,0.17490996475466217,2.487980944155451,-5.5858218564868105
2022-12-06 15:33:24.283,0.2924944024275338,-1.1220821739146245,0.14617561340647645,-3.876269173208135,1.1417481928539754,-0.7755134599648809,0.1870511101756001,2.5007161276676775,-5.617952809988123
2022-12-06 15:33:24.293,0.30267934506275884,-1.151505680214335,0.13155255822550066,-3.4416653528761008,1.3460316576518172,-0.6499925012163913,0.21185935795003966,2.4995127231517826,-5.626256393759155
2022-12-06 15:33:24.303,0.31345200130860984,-1.1864136580551239,0.11384207292408939,-3.01525858215904,1.6381028672981817,-0.4755150266962258,0.2501360932076212,2.4822504264961704,-5.613171414973094
2022-12-06 15:33:24.313,0.3240058304574041,-1.2257363475165697,0.0936114280358259,-2.5938070017222956,2.010917589480564,-0.256239336480363,0.301660097994067,2.4471001032074886,-5.58124428295113
2022-12-06 15:33:24.323,0.33345138826929166,-1.2680000830630478,0.07151515845921405,-2.1726034227630677,2.4523728433387264,0.0021195607127838583,0.36521376055932814,2.392756707227167,-5.533067294134435
2022-12-06 15:33:24.333,0.3408974874988371,-1.3114552375465716,0.04825318447178501,-1.746088907791979,2.946395161663894,0.29268201797042404,0.4386563693865687,2.3186174477824006,-5.471176963329239
2022-12-06 15:33:24.343,0.34554457951271567,-1.3542255564862808,0.024537980316831617,-1.30863377096739,3.4743263600407213,0.6077365065630368,0.5190216012770335,2.2248796284002563,-5.397910662732712
2022-12-06 15:33:24.353,0.34678291940273154,-1.3944658066105071,0.0010670022832494834,-0.855443619725213,4.016466286548721,0.9390218787123996,0.6026326655724311,2.1125585411056425,-5.315231304266906
2022-12-06 15:33:24.363,0.3442815807654186,-1.430514635375956,-0.021504484316366142,-0.38349767262390655,4.55364295152754,1.2780079044564667,0.6852410926778763,1.9834463291389037,-5.224544204280691
2022-12-06 15:33:24.373,0.3380508796060515,-1.4610271323703734,-0.04259033115370959,0.10763576334360177,5.068672867074731,1.6162083440373338,0.7621968793791836,1.8400373766209068,-5.126539644724318
2022-12-06 15:33:24.383,0.3284633384866992,-1.485070851938307,-0.06169540281719856,0.6152771388707089,5.547551589287521,1.9455044007586204,0.8286567668273888,1.6854326423667991,-5.0210915051220635
2022-12-06 15:33:24.393,0.31622502402079833,-1.502175852393278,-0.07842887025987323,1.133538158538455,5.9802325247218215,2.2584263274771725,0.8798372220806371,1.523218602928448,-4.907232455131096
2022-12-06 15:33:24.403,0.30229785400063874,-1.512340545823642,-0.09251066805443503,1.6537094322837007,6.360946626950169,2.5483732723203456,0.911309845700908,1.3573201611038628,-4.783225462051386
2022-12-06 15:33:24.413,0.2877823989554165,-1.5160007356315488,-0.10377555208939952,2.1651069356765786,6.68811902223286,2.8097983431128837,0.919319588773908,1.1918460796626835,-4.646754909929995
2022-12-06 15:33:24.423,0.27377758827263415,-1.5139672134646462,-0.11217770261144074,2.6562671030492995,6.963963921904214,3.0383944474403606,0.9010955769645105,1.0309494333535711,-4.4952454118749845
2022-12-06 15:33:24.433,0.261237903214711,-1.5073365047942733,-0.11779652551523684,3.1163183632966964,7.193812525111644,3.231294998995239,0.8551248275061446,0.8787082578412467,-4.326282524279514
2022-12-06 15:33:24.443,0.25084985851398683,-1.4973845048872274,-0.12084260718457994,3.536322564078411,7.38523953974781,3.387281231928795,0.7813604895583046,0.7390116759653028,-4.138078489676378
2022-12-06 15:33:24.453,0.24294709544264917,-1.4854568847174001,-0.12166050175986644,3.9103783546066877,7.547106237607838,3.506967313773794,0.6813341961288676,0.6154250906473279,-3.9299087032220767
2022-12-06 15:33:24.463,0.2374779214265213,-1.4728660632387611,-0.12072249008758978,4.236312206005033,7.688645899139546,3.592907363063264,0.55814264353471,0.5110084226084832,-3.702440536179912
2022-12-06 15:33:24.473,0.23403190737773427,-1.4607968839326597,-0.11860734962729884,4.515839702344377,7.818647463538051,3.6495478691110472,0.4162883882403544,0.42807663255223105,-3.4578862263016923
2022-12-06 15:33:24.483,0.23192286002981372,-1.450222518958306,-0.11596244238657577,4.754154276757532,7.9447284312664666,3.682964924902064,0.26137620367605163,0.3679175952750632,-3.1999372277626597
2022-12-06 15:33:24.494,0.23031443937361898,-1.4418400103770292,-0.11345408243566843,4.958998442492944,8.072715357734344,3.7003869115152708,0.0996949630094781,0.3305087659339359,-2.933476349325663
2022-12-06 15:33:24.504,0.22836532615103142,-1.4360414165293294,-0.11171535659316212,5.139379927367458,8.20623641708138,3.7095728978485525,-0.06225929986018555,0.3142907446344522,-2.664107813754624
2022-12-06 15:33:24.514,0.2253668597828018,-1.4329327561963177,-0.1112999242239578,5.304172480613978,8.346666755144469,3.718147286244921,-0.218251084055029,0.31605608606921964,-2.397582118033849
2022-12-06 15:33:24.524,0.22084811476726704,-1.4323988651110766,-0.1126469630043807,5.460860968363707,8.493495533690718,3.732978467616247,-0.36270011546663294,0.33099534038408224,-2.139211969150491
2022-12-06 15:33:24.534,0.21463061646251447,-1.4341949963482359,-0.11605899520486807,5.614654376196053,8.645033772819788,3.7596622069999888,-0.4909572680359394,0.3529156165975001,-1.8933719523433519
2022-12-06 15:33:24.544,0.20682699974980032,-1.4380347224486942,-0.1216913667342358,5.768104933891429,8.799233166090545,3.802142472738057,-0.5994419627590725,0.37461911448814583,-1.6631482560127269
2022-12-06 15:33:24.554,0.19779283324376026,-1.4436444157454005,-0.12954993128864237,5.921240679742976,8.95431996567024,3.86247291773315,-0.6856486728410133,0.388407264299498,-1.4501633971141514
2022-12-06 15:33:24.564,0.18805271396490264,-1.4507660871860377,-0.1394926741136031,6.072075336704941,9.108999844662137,3.940698872666894,-0.7480526343409,0.3866622225159984,-1.2545579864653784
2022-12-06 15:33:24.574,0.17822517629773843,-1.459107425603421,-0.15123164092127026,6.21726862358019,9.262127274671574,4.034829792316969,-0.7859586740159762,0.3624502578764474,-1.0750808069332187
2022-12-06 15:33:24.584,0.16896657588012529,-1.4682571765486085,-0.1643336431263741,6.352708308546561,9.411907765015282,4.140875365424713,-0.7993403907256219,0.31009104960612105,-0.9092282708581041
2022-12-06 15:33:24.594,0.160945893149713,-1.4776021178553072,-0.17822176829822442,6.473845723540298,9.554887044272627,4.252936942627762,-0.7887089756213448,0.2256430497561176,-0.753385942930674
2022-12-06 15:33:24.604,0.1548515338133214,-1.4862904984875165,-0.19218300823730372,6.575705949933296,9.685131660503878,4.363375498392017,-0.7550339795373108,0.10726502704635217,-0.6029532636109243
2022-12-06 15:33:24.614,0.1514175388643637,-1.4932770291761976,-0.20538849173101378,6.652613718866231,9.794028973245078,4.463098525896161,-0.6997172907466171,-0.04457376832326852,-0.45246873454830383
2022-12-06 15:33:24.624,0.15144415173996673,-1.4974569349218163,-0.2169326342965077,6.697816580548909,9.87096848770365,4.542012256403396,-0.6246011555340509,-0.22704603556030614,-0.2957842948012376
2022-12-06 15:33:24.634,0.15578434993415965,-1.4978639768066428,-0.22589635447316325,6.703287478202535,9.904863966919768,4.589682726959295,-0.5319769668972865,-0.4350743949207169,-0.12634985870251608
2022-12-06 15:33:24.644,0.16527923614414108,-1.4938849496230167,-0.23143461621584527,6.659970763115651,9.886184625094206,4.596229623887825,-0.42455911682180064,-0.6615786917465172,0.06234907283582519
2022-12-06 15:33:24.654,0.180647180681533,-1.4854361246355903,-0.23287867970396195,6.558575219370467,9.809003283909108,4.553411232015384,-0.3053964792353017,-0.8978576993243497,0.2762050219171736
2022-12-06 15:33:24.664,0.20235198619206238,-1.4730513221583779,-0.22983244900361727,6.390791990487545,9.672544116237026,4.455752408447546,-0.17771522931358757,-1.1341168795480774,0.519817939703488
2022-12-06 15:33:24.674,0.2304847663489343,-1.4578463532245267,-0.22223703493470168,6.150646881653526,9.481781464562314,4.301472896190311,-0.04472661961831002,-1.3601389643807833,0.7958549641453881
2022-12-06 15:33:24.684,0.2646923172109407,-1.4413548019498723,-0.2103839767220968,5.83564191756262,9.24682942244683,4.092960679940332,0.09053073001637665,-1.5660511003880586,1.1045746317289762
2022-12-06 15:33:24.694,0.3041730658436269,-1.425268978138713,-0.1948740499829211,5.447388722116329,8.981192239790635,3.8366442033691097,0.2252518203752442,-1.7431165605172998,1.4436284537597404
2022-12-06 15:33:24.704,0.3477424668162587,-1.411148986425273,-0.17653467521390775,4.991576620633327,8.699302504536982,3.542296113049839,0.35681400710954314,-1.884481263476404,1.8081957618332976
2022-12-06 15:33:24.714,0.39395192749319213,-1.4001697710108614,-0.15631567946550573,4.477309826063155,8.413983634101376,3.221936423704643,0.48264475751308267,-1.9858092395857574,2.1914355299472064
2022-12-06 15:33:24.724,0.4412369722324116,-1.3929598152463363,-0.135181483898891,3.9159915729814756,8.13445773606321,2.8885408273855515,0.6000650188037147,-2.0457396482869346,2.585175349131429
2022-12-06 15:33:24.734,0.488068908789847,-1.389553056787093,-0.11401339733567777,3.3199858639017594,7.865298401496252,2.554736055673214,0.7061696797560574,-2.0661033810966503,2.9807163501969227
2022-12-06 15:33:24.744,0.533085909009963,-1.3894432665542649,-0.0935326100883523,2.7012942266463287,7.6064021482873505,2.2316312258782207,0.7977983752650885,-2.0518552418926497,3.3696240696615662
2022-12-06 15:33:24.755,0.5751861299466507,-1.3917118579335848,-0.0742532460701438,2.070459228745911,7.353788755038133,1.9279165885866447,0.8716368117162119,-2.0107039072303494,3.7444122976193652
2022-12-06 15:33:24.765,0.6135761345392723,-1.3951958675476253,-0.0564725659352182,1.4358281207028085,7.100930835843525,1.6493493200485592,0.924468507393206,-1.9524541375551934,4.099083882705503
2022-12-06 15:33:24.774,0.6477764553842043,-1.3986657488099759,-0.04029920197012325,0.8032141945227499,6.840312171215355,1.3987061160740315,0.9535581332898335,-1.8881169689755954,4.429504455411934
2022-12-06 15:33:24.784,0.6775910170541748,-1.400989290849316,-0.025711400973358195,0.17592922852607618,6.5649609209701785,1.1761971891147378,0.957101033588849,-1.8288849127408933,4.733558286114036
2022-12-06 15:33:24.795,0.7030502294327206,-1.4012658752680272,-0.012630119426099975,-0.44487749983078206,6.269775618916536,0.9802351097348941,0.934648869798987,-1.7850902167049998,5.011048112741393
2022-12-06 15:33:24.804,0.7243384666757705,-1.3989208149284729,-0.0009890492971487172,-1.059661472487403,5.952529682459795,0.808380866761198,0.8874258299685752,-1.7652598057326079,5.263360157476493
2022-12-06 15:33:24.815,0.7417154307891738,-1.3937522542893215,0.009215262821573172,-1.6697936704981042,5.61447636890819,0.6582631008826053,0.8184684533462533,-1.7753610470273402,5.492961834265063
2022-12-06 15:33:24.825,0.7554405132220304,-1.385926079756985,0.01790483437493741,-2.2768172305366945,5.260493377704734,0.5282800080148343,0.7325488705356271,-1.818303654559116,5.702813760398646
2022-12-06 15:33:24.835,0.7657097368773912,-1.3759197582814093,0.024935018277636358,-2.881735470708377,4.898737548917117,0.4179580308450779,0.635877237212183,-1.893726800171978,5.895775467301733
2022-12-06 15:33:24.845,0.7726117165295555,-1.3644234788705418,0.03013392110296998,-3.484420857266248,4.539837514180364,0.3279510767248714,0.5356174949710476,-1.9980651735188217,6.074071105103651
2022-12-06 15:33:24.855,0.7761014739708094,-1.3522143653365368,0.033352491773447415,-4.083190543879009,4.195724810706659,0.2597629562508899,0.43927950091465445,-2.1248641830198696,6.238859364412294
2022-12-06 15:33:24.865,0.775985622371998,-1.3400247437380723,0.034512656117928885,-4.674521386991146,3.87827180052426,0.2153125050112975,0.3540631361651765,-2.2653064063054784,6.389929576441972
2022-12-06 15:33:24.875,0.7719160844685153,-1.3284271015128701,0.03364519608553625,-5.252854199848769,3.5979474075054445,0.1964426819671729,0.2862278942511235,-2.408912099898119,6.525532877496831
2022-12-06 15:33:24.885,0.7634005059059944,-1.3177551142848616,0.030912664474974393,-5.8105065013919175,3.3627052171399643,0.2044445595283717,0.2405514483779177,-2.544373675622481,6.642356872626032
2022-12-06 15:33:24.895,0.7498467603553786,-1.3080709445835264,0.026614462109952667,-6.337828216937253,3.177268151477059,0.23965142475674975,0.21993008363573674,-2.6604689749747585,6.735659020352682
2022-12-06 15:33:24.905,0.7306575766642832,-1.2991778396397167,0.021171462387683086,-6.823796340531421,3.042872587254308,0.30115839284617696,0.2251660338550134,-2.746974708962835,6.799575964817344
2022-12-06 15:33:24.915,0.7053779041035666,-1.2906712579278532,0.0150874727571932,-7.257184537604113,2.9574420514685875,0.3867326477108013,0.25497697684373144,-2.7954841113854747,6.827613437671407
2022-12-06 15:33:24.925,0.6738769033838763,-1.2820201795098929,0.008887938118718578,-7.628274276422002,2.9161308765495244,0.49297696143843783,0.3062415619074152,-2.8000354954384012,6.813293141352935
2022-12-06 15:33:24.935,0.6365238225420055,-1.272662867481341,0.0030448385121570765,-7.930848807234825,2.9121534455310827,0.6157574046608382,0.37445770838539816,-2.7574846277024556,6.750895942386007
2022-12-06 15:33:24.945,0.5943015413905679,-1.2620891108654635,-0.0020928025568816146,-8.163991572219475,2.937711166479073,0.7508003531694097,0.4543449031212244,-2.6675964965861407,6.636207009512913
2022-12-06 15:33:24.955,0.5488072053941415,-1.2498811074172156,-0.006338503144874069,-8.333111785217307,2.9847292566704318,0.8942566996893647,0.5404842872171873,-2.5328789150028306,6.467152990841044
2022-12-06 15:33:24.965,0.5021198148721959,-1.2357055372676502,-0.009661120588130963,-8.44976452585365,3.0451891149136183,1.0430032570271117,0.6278793980841212,-2.3582157900856764,6.244228648885917
2022-12-06 15:33:24.975,0.4565555419770601,-1.2192751574216802,-0.012133352547333335,-8.530187025925285,3.111078258088901,1.194556981482183,0.7123456807776627,-2.1503646756158776,5.970629688477066
2022-12-06 15:33:24.985,0.4143659995728803,-1.2003123300940712,-0.013858683395360975,-8.592863888004786,3.1741942015282714,1.34667747947952,0.7906898988906388,-1.9173678049213512,5.652043722043658
2022-12-06 15:33:24.995,0.37745271959548,-1.1785445348185442,-0.014906868856506633,-8.65572326393655,3.226110156335247,1.496893579678157,0.8606981452272142,-1.6679222087441397,5.296125320750716
2022-12-06 15:33:25.005,0.3471644835975549,-1.1537439894402446,-0.01527921390037934,-8.73366981162238,3.2585247014942174,1.6422008094934661,0.9209909000309596,-1.410766632957823,4.911768755997726
2022-12-06 15:33:25.015,0.32421152051459745,-1.1257979580121695,-0.0149085905896556,-8.837007619844588,3.2639998372245262,1.77905549014647,0.9708167440506333,-1.1541360613822638,4.5083242844459335
2022-12-06 15:33:25.025,0.30868700925426873,-1.094781784344841,-0.01368619451448897,-8.970935583509473,3.2368642479898,1.903642710700148,1.0098475851215476,-0.9053043406382372,4.094867356186642
2022-12-06 15:33:25.035,0.3001540033536167,-1.0610133432598006,-0.011502078093302165,-9.135897805696883,3.174001067611305,2.012305983993586,1.038017551167198,-0.6702108315390681,3.6795728603327946
2022-12-06 15:33:25.046,0.2977478379724482,-1.025082448568076,-0.008287077035234937,-9.328338758097319,3.0753635085400886,2.102009148017396,1.0554235645755283,-0.4531608307469173,3.269204158736171
2022-12-06 15:33:25.056,0.3002600262491912,-0.9878554005129133,-0.004046058146183743,-9.541426577099083,2.9441919904959195,2.1707191180891745,1.0622848135340728,-0.25659638858471406,2.868709093893669
2022-12-06 15:33:25.066,0.30619875741237246,-0.9504536810630607,0.001123837184012624,-9.765526100680681,2.786937458855624,2.2176287158785164,1.0589467080700845,-0.08094775129232713,2.4809225123815564
2022-12-06 15:33:25.075,0.3138463093335237,-0.9142041409939394,0.007031237363145996,-9.988491958039978,2.6128793974206017,2.2431871514978914,1.0459136063188887,0.07541003655262214,2.1063967784709283
2022-12-06 15:33:25.085,0.3213415835656821,-0.8805584481807122,0.013402516558706355,-10.196045164955533,2.43342259267415,2.2489577188929766,1.023898409564239,0.21606127080991913,1.7434010438987875
2022-12-06 15:33:25.096,0.32680545335290495,-0.8509839600264192,0.019904668594636302,-10.37250181256427,2.261078217161805,2.237349306944976,0.9938787833183991,0.34628081692109974,1.3881313943785003
2022-12-06 15:33:25.105,0.3285065032167344,-0.8268378661074783,0.026177803466991938,-10.501971192203342,2.10820083081238,2.2112644687346132,0.9571451775064097,0.47257404967243555,1.035150971091677
2022-12-06 15:33:25.116,0.32504530372321017,-0.8092469481813813,0.031877963722945366,-10.569932978709302,1.9856584254198701,2.1736826882331735,0.9153185216728585,0.6020371752487778,0.6780382972461874
2022-12-06 15:33:25.126,0.3155239404891873,-0.7990189250886891,0.036728198638663195,-10.564932356307516,1.9016976766359277,2.1271864437109214,0.870315666347756,0.7415870095679623,0.310178762851707
2022-12-06 15:33:25.136,0.2996681627471464,-0.796602868650342,0.040567123326044806,-10.480059511977794,1.8612568888045125,2.073484971210541,0.8242550947703822,0.8971434723905182,-0.07439623154543341
2022-12-06 15:33:25.146,0.27788123216265603,-0.8020972931005531,0.043377709847330304,-10.313928512710755,1.8658406872081792,2.0130731169179277,0.7793187540227252,1.0728702159308734,-0.4802268617113877
2022-12-06 15:33:25.156,0.25122393270678695,-0.8152870858625129,0.045283413105115806,-10.071005754682547,1.9138619297574126,1.9451839658968024,0.737603470226684,1.270581780782255,-0.9097920227416381
2022-12-06 15:33:25.166,0.22132557768529532,-0.8356876135892338,0.04651213394570517,-9.76127575867529,2.001221906170405,1.8681027542298598,0.700995494981339,1.4894050253328412,-1.3630960112817492
2022-12-06 15:33:25.176,0.1902343252234293,-0.8625841297136974,0.04734117536746907,-9.399304741804137,2.1219257196161645,1.7797633000553443,0.6710855988091511,1.7257415491360786,-1.837518746490847
2022-12-06 15:33:25.186,0.1602176055002159,-0.8950627793535301,0.048040560675287725,-9.002782017592683,2.2686314077806684,1.6784476195722018,0.6491221817373053,1.9735282872939353,-2.3279446937946995
2022-12-06 15:33:25.196,0.1335309312099604,-0.9320303710446575,0.048828088864691754,-8.590654921910078,2.4330796013237945,1.5634036490884382,0.6359876073640941,2.2247489971569494,-2.8271503991595286
2022-12-06 15:33:25.206,0.11218411008456589,-0.9722219168050948,0.049842559867628054,-8.181061706960659,2.6063522212460213,1.4352576431231923,0.6321811122098493,2.4701185051035037,-3.326390837685991
2022-12-06 15:33:25.216,0.09773987976067779,-1.014203806095341,0.0511359572998783,-7.789362931573925,2.7789579390670407,1.2961719106087288,0.6377962373052123,2.6998483385267935,-3.8160917143947293
2022-12-06 15:33:25.226,0.09117477132800887,-1.05639077184711,0.05268185720285878,-7.426593719091842,2.94085360418979,1.149753558688167,0.6524874632734807,2.904407417300188,-4.286541912480136
2022-12-06 15:33:25.236,0.0928163800005887,-1.0970968811334698,0.05439495624450291,-7.098566965358357,3.081599506569159,1.0007562571539088,0.6754281086147084,3.075208864593384,-4.7284926358667425
2022-12-06 15:33:25.246,0.10235335979579586,-1.134630864654854,0.05615516399034451,-6.80568717244492,3.1908309106426223,0.8546439795284358,0.705269156828849,3.205175632574507,-5.133605813912771
2022-12-06 15:33:25.256,0.11890419777719821,-1.167428841963696,0.05782999414678614,-6.543380340810342,3.259102468426842,0.7170996333673346,0.7401154311952504,3.2891623116513675,-5.494751614364729
2022-12-06 15:33:25.266,0.14113081183117754,-1.1942022563241952,0.05929075791718137,-6.302987910886248,3.2789935922403175,0.5935553101184504,0.7775400051268254,3.3242332283265155,-5.806204289411221
2022-12-06 15:33:25.276,0.16738614912289934,-1.2140730597348024,0.060419725634395405,-6.072999834564227,3.2462441593778197,0.48880423673283624,0.8146583022568432,3.3098032129960027,-6.063776884124769
2022-12-06 15:33:25.286,0.19588272670706627,-1.2266724029377758,0.06110672694031795,-5.840524031844957,3.1606734420357365,0.40674183933792657,0.8482783760291422,3.247640499761396,-6.264886126560318
2022-12-06 15:33:25.296,0.22486120474557178,-1.2321873840408326,0.06123635449911236,-5.592845104357602,3.0266988182731014,0.3502671780288951,0.8751317655516424,3.1417317027711027,-6.408525916023956
2022-12-06 15:33:25.306,0.25273278011554,-1.2313474824715667,0.06067178288186089,-5.318847676105114,2.8533483625830187,0.32133672902994004,0.892169222305471,2.99801691593387,-6.495160307321884
2022-12-06 15:33:25.316,0.27817442099143425,-1.225349339200748,0.059245704250195895,-5.010060750933675,2.653721940704166,0.3211038611735752,0.8968811842711044,2.824005667018412,-6.526570585442926
2022-12-06 15:33:25.326,0.30017117253260356,-1.2157279827595004,0.0567688569780643,-4.661174656174131,2.443927527158595,0.3500355734622539,0.8875843684966568,2.628286076642742,-6.505686320344231
2022-12-06 15:33:25.336,0.31801587031441625,-1.204191094718985,0.053060077051489546,-4.270050049033765,2.2416097476883987,0.40791075282775296,0.8636140736742905,2.419951640821105,-6.436413947725106
2022-12-06 15:33:25.347,0.3312839665938131,-1.1924372759382011,0.04799081585531949,-3.8373742111093243,2.064252022911681,0.49367733799663954,0.8253808810201022,2.207992185216408,-6.323463646481
2022-12-06 15:33:25.357,0.3397979856933571,-1.1819820408087292,0.04152728535665476,-3.366149086356041,1.9274628988741038,0.6052490467332273,0.7742853407001457,2.0007178689579868,-6.1721730737291916
2022-12-06 15:33:25.366,0.34358975830303795,-1.174017272584675,0.03375204438234151,-2.861140113952944,1.8434811545445033,0.7393952846642572,0.7125189737676981,1.8052923471463367,-5.988329228864078
2022-12-06 15:33:25.377,0.34286599443626115,-1.1693265692720738,0.024856709808176367,-2.3283612552718913,1.8201379083468805,0.8918547509581658,0.6427946534397917,1.6274279428831118,-5.777983004305158
2022-12-06 15:33:25.387,0.33798117339116274,-1.1682668842268007,0.015111810567900091,-1.774654216450778,1.860447802964943,1.0576850050292625,0.5680430191574222,1.4712501638196966,-5.54724052534804
2022-12-06 15:33:25.397,0.32941660257871896,-1.1708091310219417,0.004828311411023975,-1.2073885936100361,1.962853518731621,1.2317369374227027,0.4911048153304484,1.3393059156389386,-5.302027678768747
2022-12-06 15:33:25.407,0.3177599533330782,-1.1766168738005152,-0.0056761031912093505,-0.6342495834545744,2.1219767025366774,1.4091014254819396,0.4144511161785191,1.2326823369098663,-5.047854321425952
2022-12-06 15:33:25.417,0.3036805098334339,-1.1851420713957017,-0.01610073053153289,-0.06305017607018527,2.329642212362352,1.58542511001825,0.33996172901267757,1.1512000777134281,-4.789615331437855
2022-12-06 15:33:25.427,0.28789891209403806,-1.1957268674513346,-0.02617721273175283,0.49847350451817823,2.5759944199991502,1.757079466765656,0.26878153901510043,1.0936393471614887,-4.5314516836249
2022-12-06 15:33:25.437,0.2711520992567182,-1.2077075685311407,-0.035679482386924984,1.0428947360983314,2.8506308215261296,1.9212208135314925,0.20126320443842444,1.057962266396755,-4.276681434512191
2022-12-06 15:33:25.447,0.2541547016603628,-1.220514358068328,-0.044429355015175656,1.5633556350288875,3.1437149282057053,2.0757753715725187,0.1369969433318432,1.0415113087540602,-4.027804889362846
2022-12-06 15:33:25.457,0.23755953201996696,-1.2337539555153352,-0.05229903296988877,2.0538464555947185,3.4469798854154305,2.219369101559292,0.07492428219395941,1.041180838351996,-3.786581375781001
2022-12-06 15:33:25.467,0.22192236993414588,-1.24726180869231,-0.059214019425545085,2.5094791327849277,3.7544857406995376,2.3512356969530726,0.0135308810225456,1.0535704479872212,-3.5541652416967406
2022-12-06 15:33:25.477,0.20767732393829685,-1.2611171003979518,-0.06516038733008521,2.9267044623595697,4.0630203246752306,2.4711561626773118,-0.048891219126022345,1.0751317767877082,-3.331277208457081
2022-12-06 15:33:25.487,0.19512665913980876,-1.2756216051173916,-0.07019705326028455,3.303419077119941,4.372114360858465,2.5794720101184625,-0.11393343011261584,1.102314923136173,-3.118370968414741
2022-12-06 15:33:25.497,0.18444423697379314,-1.291247022013864,-0.07446827351236378,3.638939193610176,4.683705477122263,2.6771660555694714,-0.18275069476314248,1.131707891590062,-2.915745646675269
2022-12-06 15:33:25.507,0.17568724497809965,-1.3085556557453715,-0.07820768854242445,3.933866247625374,5.001502892614424,2.7659472389596393,-0.2557835497722893,1.1601457289815842,-2.7235782104228505
2022-12-06 15:33:25.517,0.16880940072596168,-1.3281005698663657,-0.08172601183448919,4.189906858328768,5.3301026239916816,2.8482466455159274,-0.3325752914553764,1.184758365106419,-2.541893960364695
2022-12-06 15:33:25.527,0.1636717974374134,-1.3503164498461622,-0.08538025453505324,4.409708529845687,5.673927395113772,2.9270543926644543,-0.4117213937003675,1.2029416843129201,-2.3705123619885047
2022-12-06 15:33:25.537,0.16005278774810228,-1.3754189825572654,-0.08953022999676588,4.596729643686946,6.036127280015952,3.00559369969593,-0.4909586225552802,1.212266855200741,-2.2089931882592384
2022-12-06 15:33:25.547,0.15766112484030967,-1.4033325567239903,-0.09449306959646787,4.755113781376189,6.417632243763952,3.0869007599639606,-0.5673696678591611,1.2103661075719507,-2.056593754196574
2022-12-06 15:33:25.557,0.15615497692525274,-1.4336601337298045,-0.10050581515822007,4.889526098276076,6.816538670820095,3.1734118172144665,-0.6376574983904663,1.194838460329691,-1.9122429253740025
2022-12-06 15:33:25.567,0.15516611466291122,-1.4656976815406204,-0.10770177694020103,5.004935587798162,7.227927883723688,3.26664107108534,-0.6984372578434681,1.1632109516236433,-1.774534691558688
2022-12-06 15:33:25.577,0.1543273111046985,-1.4984839775182555,-0.11610147359334928,5.106355358331751,7.6440961734912865,3.366991193946634,-0.7465014296155656,1.1129770402256354,-1.6417398049143461
2022-12-06 15:33:25.587,0.1533021531643038,-1.5308693744520627,-0.12561473012369376,5.19855493775638,8.055074892158595,3.4736953084996562,-0.7790317355907372,1.0417178294813667,-1.5118286030427857
2022-12-06 15:33:25.597,0.15181804515200284,-1.5615872081286852,-0.13604789639148587,5.285742448871797,8.449273199023333,3.5848526226111344,-0.7937517462119991,0.9472958050332744,-1.3824937129323611
2022-12-06 15:33:25.607,0.14970380248784426,-1.5893194480465636,-0.14711066627045305,5.371200963928327,8.814106813692856,3.697503669293876,-0.7890303471187937,0.8280971107439262,-1.2511614902644042
2022-12-06 15:33:25.617,0.14693153180772467,-1.6127597115013819,-0.15841983959769365,5.456865594583203,9.136573370388232,3.8077045608171414,-0.7639541205623147,0.6832876283673871,-1.1149886431960876
2022-12-06 15:33:25.627,0.14365773482143165,-1.6306845246636243,-0.1695005768018428,5.542859037678782,9.403841490001058,3.9105868843978278,-0.7183851329084774,0.513040910274481,-0.9708544436967628
2022-12-06 15:33:25.637,0.14025345124080732,-1.6420431709038958,-0.1797891976001651,5.627058772766996,9.603969320319129,4.000417622093511,-0.6530095694680674,0.31869650995775467,-0.8153739135259968
2022-12-06 15:33:25.647,0.13731186067118106,-1.6460683132232667,-0.18864513323701168,5.704811518543406,9.726833853255194,4.070707083724545,-0.5693658360209533,0.10281938595059555,-0.6449667985250955
2022-12-06 15:33:25.658,0.13562452486123247,-1.6423973203728557,-0.19538026096506445,5.768909529883055,9.765254965971868,4.114440636483604,-0.4698269771390023,-0.13084847349022274,-0.45601617338398254
2022-12-06 15:33:25.668,0.13612155513741692,-1.6311818575721357,-0.1993095685655963,5.809910905697991,9.716175041239278,4.124499278017557,-0.35750993667435976,-0.37753324137803373,-0.24513718805274817
2022-12-06 15:33:25.678,0.13977579998068518,-1.6131552507584206,-0.19982034458699494,5.816846121089537,9.581646208172348,4.094281001203052,-0.23609555230288287,-0.6316481831592531,-0.0095512760454808
2022-12-06 15:33:25.688,0.14747878026397532,-1.5896271431958622,-0.1964506750349914,5.77829637937305,9.369324536889987,4.018470298244701,-0.10956586650146931,-0.887060726148839,0.25247191774004396
2022-12-06 15:33:25.698,0.1599054059129112,-1.5623836963035063,-0.1889623127384765,5.683740548947626,9.09219876692962,3.893842238470785,0.01810627551131832,-1.1373870323645945,0.5411744179073866
2022-12-06 15:33:25.708,0.17739096474162927,-1.5334888034249488,-0.17739018171656992,5.524975280128816,8.767389618474192,3.719935371512944,0.1432577697197019,-1.3763006962587214,0.8549607264661084
2022-12-06 15:33:25.718,0.19984548235627558,-1.5050080788456905,-0.1620549008028808,5.297359269681493,8.414049845664188,3.4994207751087862,0.2627640694022311,-1.5978463115351245,1.1902285440543379
2022-12-06 15:33:25.728,0.22672672319383705,-1.4787069620428763,-0.14353481519027803,5.000629400697331,8.050669717318266,3.2380611013700022,0.37415140749793446,-1.796747977100847,1.5414448917338834
2022-12-06 15:33:25.738,0.257082021732678,-1.455791801263394,-0.12260426779423232,4.639095154460403,7.692353853556923,2.9442597427678434,0.47557870791335577,-1.968698507862114,1.9014876871918946
2022-12-06 15:33:25.748,0.28965248036835595,-1.436755544282999,-0.10015100097220556,4.221149605613739,7.348725990464354,2.6282894412021016,0.5657101728695868,-2.1106084989014855,2.2622163981541843
2022-12-06 15:33:25.758,0.3230176212562907,-1.4213596687586214,-0.07708705247661335,3.758203405026354,7.022959472702663,2.3013362147089356,0.6435266771424435,-2.2207880265735795,2.6151860978281847
2022-12-06 15:33:25.768,0.355750782951206,-1.4087458462111686,-0.05426550615983209,3.2632814170074442,6.7120963591382505,1.9745003369653908,0.7081350885636659,-2.2990322351881596,2.952392374516839
2022-12-06 15:33:25.778,0.386557843957832,-1.3976407874394874,-0.032412344602010514,2.749568254723384,6.408468293621921,1.6578758115360976,0.758628670726947,-2.346588426595271,3.2669358050529196
2022-12-06 15:33:25.788,0.41438155385792613,-1.3866038149400968,-0.012080444970080723,2.22914154851458,6.101802002396095,1.3598067965921974,0.7940346509466785,-2.3659950429129677,3.55352001675032
2022-12-06 15:33:25.798,0.4384646374124646,-1.3742675547822418,0.006369408388434108,1.7120331718571649,5.781519913888134,1.0864028811962836,0.8133630157327515,-2.360798629106247,3.8087362314775954
2022-12-06 15:33:25.808,0.4583727397618675,-1.3595329294742382,0.02275974148259294,1.2056662705560681,5.438798970721694,0.8413662668913571,0.8157476220937877,-2.3351723293737487,4.0311276610813795
2022-12-06 15:33:25.818,0.4739833637769767,-1.3416961037015056,0.037064318807182216,0.7146514794766098,5.068082173285076,0.6261320349318374,0.8006502644968663,-2.2934780302862094,4.22105977861685
2022-12-06 15:33:25.828,0.48545027667277046,-1.3205030455868016,0.04936095761332438,0.2408813745741632,4.667906090978822,0.44026784982422895,0.7680844095429185,-2.2398293365392097,4.380442283002309
2022-12-06 15:33:25.838,0.4931537229745028,-1.296142151746497,0.05977859208999662,-0.21616516504644212,4.241071163013631,0.2820442430898784,0.7188107572599506,-2.177718430713326,4.51235496665247
2022-12-06 15:33:25.848,0.497643608685007,-1.2691921616027548,0.06844794234074456,-0.6589942542149339,3.794295380859765,0.14907272543281244,0.654461007554257,-2.1097646667844296,4.620625521316893
2022-12-06 15:33:25.858,0.49957694248945994,-1.2405401695385516,0.07546506393136426,-1.0915865993393763,3.3375196190725673,0.03890310667332781,0.5775570559322865,-2.037626906326446,4.709397694183743
2022-12-06 15:33:25.868,0.49964799743793054,-1.2112789967269086,0.08087500130544768,-1.5187960060508892,2.8829869065483673,-0.0505275414870502,0.49141085885164093,-1.9620952192555505,4.782719329874389
2022-12-06 15:33:25.878,0.49851408281496584,-1.1825929295348188,0.08467652781472602,-1.9456483498487653,2.4441742931571357,-0.12066804002693976,0.39991588442120785,-1.8833428742208935,4.844175923879317
2022-12-06 15:33:25.888,0.4967274583447419,-1.1556458957789988,0.08684133127705566,-2.3766010054894484,2.034675679689271,-0.17234738238357913,0.307266056390553,-1.801283905186994,4.896595597872455
2022-12-06 15:33:25.898,0.4946868609361928,-1.1314875303436716,0.08733726406902881,-2.8148911375207963,1.6671783734448415,-0.20591551790733997,0.2176473428932126,-1.7159560370892173,4.941851878246861
2022-12-06 15:33:25.908,0.4926185476383721,-1.1109851469941676,0.08614743649769536,-3.2621047419842273,1.352657706270879,-0.22143103454146548,0.13494006551869261,-1.6278434135335353,4.980786483044708
2022-12-06 15:33:25.918,0.4905904314883105,-1.0947798634056505,0.08328275761043427,-3.7180499677826018,1.0998246252336377,-0.2188284360274362,0.06246457119421447,-1.5380720962369028,5.013260702879267
2022-12-06 15:33:25.928,0.48855532311836264,-1.0832615904904632,0.07879002428330924,-4.180954216645953,0.9147853749330294,-0.1980524347538427,0.002801643933063855,-1.448447941175935,5.038322548185731
2022-12-06 15:33:25.938,0.4864106870294279,-1.076559291801721,0.07275796556133023,-4.647926056918186,0.8008648818358206,-0.15917412248514157,-0.04229554756287243,-1.3613478276600728,5.054457255972459
2022-12-06 15:33:25.949,0.48405664222914685,-1.0745435366640936,0.06532234696941445,-5.115540994029367,0.7585646305483079,-0.1024974200584933,-0.07190736896893508,-1.2795070215408373,5.059877832949738
2022-12-06 15:33:25.958,0.48143584510726456,-1.076837448613167,0.05667081021830542,-5.580373723912689,0.7856230895800764,-0.02865746402226839,-0.085898095764837,-1.2057588024147703,5.052810402953329
2022-12-06 15:33:25.969,0.47854728918768136,-1.0828334755186144,0.047047140835561205,-6.039340762689876,0.8771438600751615,0.06128658253489905,-0.0848376052316936,-1.1427756676292016,5.031735054890899
2022-12-06 15:33:25.978,0.47543468090450536,-1.0917159040828959,0.036752551225532275,-6.489803994801723,1.0257793252102616,0.16577227826252813,-0.06991139800983141,-1.0928406087339366,4.995554007211809
2022-12-06 15:33:25.989,0.47215464954083153,-1.102489227926087,0.02614056960104014,-6.929455070335095,1.2219745190869056,0.28269368958424024,-0.04282497456835742,-1.0576554955560487,4.943671409048655
2022-12-06 15:33:25.999,0.4687322874640757,-1.114012368181793,0.01560323758789282,-7.356032207797145,1.4542695981230132,0.40942959194370554,-0.005702533200777372,-1.0381828796296073,4.8759814540838375
2022-12-06 15:33:26.009,0.46511448666196253,-1.1250412898143167,0.005548884080850591,-7.7669438420811545,1.7096664032457667,0.5429551833564723,0.03901992566265812,-1.0345182798909642,4.792774052729009
2022-12-06 15:33:26.019,0.4611345013883758,-1.1342850531729571,-0.003624777212933458,-8.158907010861284,1.9740952765688287,0.6800237101958663,0.08870302940076306,-1.045796626061384,4.694579110616871
2022-12-06 15:33:26.029,0.4565006974303219,-1.1404795700446704,-0.011556213713352192,-8.527731383088746,2.2330327842703666,0.8173712473908935,0.1406064232590881,-1.0701433926087363,4.581978774293112
2022-12-06 15:33:26.039,0.4508165022211882,-1.1424795183936658,-0.01793995732892219,-8.868358458035145,2.472300141863755,0.9518881534109663,0.19197922867441528,-1.104682631760412,4.455419657401289
2022-12-06 15:33:26.049,0.4436283120495179,-1.1393622911167771,-0.02254083680310167,-9.175190269852862,2.679024122891295,1.0807306438281536,0.24013997906862714,-1.1456082506307457,4.315053008369946
2022-12-06 15:33:26.059,0.43448751134785824,-1.1305292930975892,-0.0252053551290782,-9.442636336395454,2.8426686210043,1.2013887800056722,0.282554885063689,-1.1883155488869683,4.160620075637181
2022-12-06 15:33:26.069,0.42300737916300923,-1.1157842210072269,-0.025872586425950875,-9.665717010460474,2.955965860889005,1.3117439200139778,0.31692595455339284,-1.2275825884430998,3.9913859239940583
2022-12-06 15:33:26.079,0.40889933490533403,-1.0953707351803574,-0.02458581128610846,-9.84053831415963,3.0155493882969675,1.410139881699767,0.3412984666555236,-1.257786720032472,3.806114334872298
2022-12-06 15:33:26.089,0.39198334325902423,-1.069961689075341,-0.02150506020803178,-9.964518330979711,3.022150897836339,1.4954831508792636,0.3541916757275278,-1.2731405625855787,3.60307417217289
2022-12-06 15:33:26.099,0.3721772069704591,-1.0406015404479982,-0.016917690904870396,-10.036353362634205,2.980325091835948,1.567372362527374,0.3547468648741737,-1.2679347437359942,3.3800726316799343
2022-12-06 15:33:26.109,0.349474634747111,-1.008609492372426,-0.011239744943572754,-10.055794166700258,2.8977457485818374,1.6262180059329272,0.3428736560045761,-1.2367810582276915,3.13451837224827
2022-12-06 15:33:26.119,0.3239237056765643,-0.9754556110502071,-0.004998479947744563,-10.023338035088438,2.784167602440147,1.673271277299139,0.31936262015698447,-1.1748570153049973,2.863524804619177
2022-12-06 15:33:26.129,0.2956171412849413,-0.9426261454000057,0.001212302527861901,-9.939953402681661,2.6501943613111836,1.7104675346494047,0.2859253938318872,-1.0781584231673595,2.5640689257190106
2022-12-06 15:33:26.139,0.2647026292881411,-0.9114965256637275,0.006806684783034032,-9.80694519810204,2.506025222638787,1.7400149629463515,0.24512817980680277,-0.9437664468330234,2.233219714786706
2022-12-06 15:33:26.149,0.23141563510860597,-0.8832325469953776,0.011301847108606437,-9.626030202039278,2.360370665079897,1.7637352276210196,0.2002038983030841,-0.7701235804784237,1.8684396282364313
2022-12-06 15:33:26.159,0.196130484031474,-0.8587401774044142,0.014411596529215474,-9.399632625720624,2.2197465629445685,1.7822877532854922,0.15475989476351992,-0.5572889269028315,1.4679457393744613
2022-12-06 15:33:26.169,0.15941808555677603,-0.8386746783681576,0.01610870525168266,-9.131343290602878,2.0883264743414514,1.7945246709735376,0.1124310994077344,-0.3071190665618396,1.0310973429206545
2022-12-06 15:33:26.179,0.12209175559760053,-0.8234998930963411,0.01663242192425406,-8.826410803355527,1.9683890288625683,1.7972470437916321,0.07654736978580845,-0.02331408384380409,0.5587582947327746
2022-12-06 15:33:26.189,0.08522076744760365,-0.813570165551797,0.016435216991988227,-8.492077323260908,1.8611890658423607,1.785526222933743,0.049878825870218954,0.2887126372887939,0.05357160409803401
2022-12-06 15:33:26.199,0.050096944021178536,-0.8091997033129142,0.01608340336112428,-8.137578885643862,1.767931727702062,1.7535581846691735,0.03449750276806789,0.622143923940684,-0.47991297608910727
2022-12-06 15:33:26.209,0.018150661121359046,-0.8106876166735046,0.016139353909671788,-7.773704701354532,1.6904925144987621,1.6958356472337646,0.031759500442816724,0.9692079662567318,-1.0352991106443863
2022-12-06 15:33:26.219,-0.009173709881342135,-0.818280414626773,0.017054633455131266,-7.411924757283142,1.6315932362451218,1.6083389004392157,0.04238162173706406,1.3216944599453062,-1.6046013343182421
2022-12-06 15:33:26.229,-0.030559315586829804,-0.8320763652475898,0.019095959728758924,-7.063227787443959,1.594312365914231,1.4894735698435346,0.06656911159337393,1.6714512735109879,-2.1786704177542897
2022-12-06 15:33:26.239,-0.044943448138332974,-0.8519005291743788,0.02231418135828945,-6.736930226355938,1.5810513269541018,1.340582519031397,0.10414872820059844,2.010784033895141,-2.747720605185555
2022-12-06 15:33:26.249,-0.05160159866872797,-0.8771940863652083,0.026555120582517293,-6.439758915226673,1.5923001602863072,1.1659805815167785,0.15466975235759217,2.3327094185795176,-3.301873517099522
2022-12-06 15:33:26.259,-0.05017977544054497,-0.9069599354581113,0.03150347531565301,-6.175414039794453,1.62564181799527,0.9725622833104445,0.21744863820563057,2.631052179474322,-3.8316432153834623
2022-12-06 15:33:26.270,-0.040688902834881954,-0.9397897334573438,0.036747389730457686,-5.944603216353763,1.6753640561491356,0.7690920089290504,0.29154742301825015,2.9004146812486447,-4.328320926572053
2022-12-06 15:33:26.280,-0.02348599204448197,-0.973972995380192,0.04184977074698498,-5.745339120425978,1.7328483025275445,0.5653113931148773,0.3756922149528024,3.136075886768665,-4.784256188225452
2022-12-06 15:33:26.290,0.0007416360308961174,-1.0076660223009057,0.04641187088627314,-5.573258171175463,1.787661845553963,0.3710115597825876,0.46815625679679373,3.333888202004038,-5.193054003203602
2022-12-06 15:33:26.300,0.030991009020499945,-1.0390846180251874,0.05011728813909874,-5.421853501170646,1.8290842128909837,0.19521645881738026,0.5666467122799522,3.490233137094106,-5.549709984611012
2022-12-06 15:33:26.310,0.06597131601353277,-1.0666832208848458,0.05275232481662315,-5.2826886790278795,1.8477091768633007,0.045580357455589735,0.6682370249618145,3.6020719769654814,-5.850695876103711
2022-12-06 15:33:26.320,0.10415825821631416,-1.089292995996119,0.054208041667850704,-5.145736110018995,1.8367962833082014,-0.07198455800437421,0.7693751094723529,3.667093780654439,-6.0939970873793925
2022-12-06 15:33:26.330,0.14387865744067907,-1.106206231431491,0.05447352507788026,-4.999940187730553,1.7931696135329214,-0.15351121528273318,0.8659787888433897,3.6839332725419016,-6.279097620662394
2022-12-06 15:33:26.340,0.18341882773617182,-1.1172059051485972,0.05362678185669774,-4.834006442076183,1.7176023584658102,-0.19708197365554245,0.953615043216557,3.652415203155039,-6.406907908265207
2022-12-06 15:33:26.350,0.22114335415287675,-1.1225450861279278,0.05182382255141091,-4.6373324450718645,1.6147161531655274,-0.2028568791654959,1.0277559509734404,3.573779537931591,-6.479640228363418
2022-12-06 15:33:26.360,0.25560807037042255,-1.122885559173788,0.04928300655851876,-4.400946576023055,1.4924692696678272,-0.17299785248194066,1.0841039488246444,3.4508475663149687,-6.500648726778982
