time,gFx,gFy,gFz,ax,ay,az,wx,wy,wz
2022-12-06 15:43:58.7890,1.31416606015705,-0.4511172737217527,0.04005123625707919,-6.565692648083231,-2.3169988949352525,0.3271857299686555,-0.1370711298787307,0.423967144475074,6.860918137394102
2022-12-06 15:43:58.8000,1.1222188222396938,-0.35354200917666523,-0.039235807047673946,-5.505794154446256,-3.7462352562443155,0.7930991116870537,-0.07502920298401235,0.5160472026750141,7.252557227087086
2022-12-06 15:43:58.8100,0.9437832504857171,-0.2670057534916108,-0.11377780108956939,-4.536071819825769,-5.064100707170584,1.22925480924514,-0.005669159372791123,0.6299487801314491,7.611869744790444
2022-12-06 15:43:58.8200,0.7863620669857709,-0.19880157897880443,-0.17937166934058668,-3.7156727771726565,-6.196553530534139,1.620477733640157,0.07731567269526518,0.7802165319443842,7.903380871123784
2022-12-06 15:43:58.8290,0.6582893857442604,-0.15523618952143986,-0.231771120864223,-3.1154146875613944,-7.076125048452006,1.9451362773716243,0.1771130806279886,0.9724067912775664,8.095123655897098
2022-12-06 15:43:58.8400,0.5682209502352438,-0.14112366838574888,-0.2668366940754262,-2.8136568005583302,-7.646936901258449,2.174920157192885,0.29302600660399186,1.2012789344043324,8.160822905998689
2022-12-06 15:43:58.8490,0.5243165647646324,-0.15931428834339048,-0.28093217403136905,-2.8892871678409033,-7.869781317262392,2.277580019755643,0.42033880802376666,1.4505814295478157,8.081737705868832
2022-12-06 15:43:58.8590,0.5331491025353391,-0.21031054596840432,-0.27150694719895885,-3.412047975300855,-7.726763336116993,2.222335848947726,0.5508714962579452,1.6946506747699779,7.848001903942976
2022-12-06 15:43:58.8680,0.5984177150754393,-0.2920331709464833,-0.23773640283613742,-4.4307590624387405,-7.224862728762363,1.9869502115101272,0.6741627347594448,1.9018001598123886,7.4592955655092705
2022-12-06 15:43:58.8790,0.7195980406456269,-0.39980638901123233,-0.18103649148422113,-5.960373970693426,-6.397700110338892,1.5648860897265995,0.7791003624557246,2.0391451405011374,6.924710729944411
2022-12-06 15:43:58.8890,0.8907424902664821,-0.526638367394355,-0.10522832763071166,-7.969367983426579,-5.30475160161267,0.9704759662648067,0.8556951053462647,2.0781127744227796,6.261748546972605
2022-12-06 15:43:58.8990,1.0997393234628745,-0.6638747828194004,-0.016151175704377473,-10.369793969196447,-4.027221185430761,0.23979440990279288,0.8965971112247877,1.9995652751429207,5.494486108245876
2022-12-06 15:43:58.9090,1.3283970282065285,-0.8022747294950936,0.0793261132417272,-13.013205967844067,-2.659861270578381,-0.5744401969590605,0.8979515670282744,1.7974184117859775,4.651064438471266
2022-12-06 15:43:58.9190,1.553666352255333,-0.9334510588012125,0.17467211030932323,-15.695886660709954,-1.2985678278370603,-1.4135930435255928,0.8593559646990758,1.4799728042794487,3.760805416546716
2022-12-06 15:43:58.9290,1.7501078741070022,-1.0513892258054958,0.2649654874221859,-18.175770114865536,-0.02506648016428183,-2.2262922556606757,0.7830077693768175,1.068766634550303,2.851487754324748
2022-12-06 15:43:58.9400,1.8933664607749845,-1.1534739222010302,0.3475628873243689,-20.200952185909053,1.1073656283919682,-2.9789908418279647,0.6724505220694924,0.5953372855505085,1.9474312592035194
2022-12-06 15:43:58.9510,1.963974112171461,-1.2403909821907797,0.42189262125248467,-21.545910574095192,2.0808121916304025,-3.6594611510408375,0.5314541707283873,0.09668199090576628,1.0687653139004707
2022-12-06 15:43:58.9590,1.950464832365701,-1.3147191715548787,0.4885153940862578,-22.04732769890889,2.9070497740441317,-4.271913223654556,0.3634500262668855,-0.38958366837267905,0.2316347101678305
2022-12-06 15:43:58.9690,1.8509106003680709,-1.3787767501202859,0.5479351908995292,-21.629393018487455,3.610191251937314,-4.826486500774077,0.17161819546943546,-0.8294484709811765,-0.5513663015070972
2022-12-06 15:43:58.9790,1.6726940708335445,-1.4326830543846993,0.5996717989171418,-20.311953919330545,4.2053595220560585,-5.328291492876547,-0.04062679608738738,-1.195562612003283,-1.2710859178123899
2022-12-06 15:43:58.9890,1.4311173990109838,-1.4733319893684644,0.6418096107060037,-18.202887320212906,4.68248537817579,-5.770131625996145,-0.2690829751694532,-1.4689549090580036,-1.9219395131067059
2022-12-06 15:43:58.9990,1.1476250817009506,-1.4944795912933277,0.6709298122375034,-15.482099317421579,5.000162674500832,-6.129674545048419,-0.5082469919521648,-1.6394336663798135,-2.5016637495269034
2022-12-06 15:43:59.0090,0.8479336088461205,-1.4879224703232885,0.6823214877044514,-12.383541767949502,5.0903144751541705,-6.369745022798539,-0.7507730801560156,-1.7048594570188058,-3.0102174942114415
2022-12-06 15:43:59.0190,0.5598169382097883,-1.4457415746684636,0.6705741774351721,-9.175873940812258,4.873408681693414,-6.4414068453440665,-0.9869802157364977,-1.6697000976393257,-3.4479448282672474
2022-12-06 15:43:59.0290,0.3102390642196782,-1.3633990854441476,0.6307357475565042,-6.138497153856268,4.283765117081587,-6.291470929666156,-1.2048284644999805,-1.543521064995337,-3.813684775499306
2022-12-06 15:43:59.0380,0.12192428656504065,-1.2428623010192001,0.55996422116667,-3.5310694598535832,3.301121230942137,-5.875742082676415,-1.3909045177978525,-1.3400831202920773,-4.103786002905721
2022-12-06 15:43:59.0480,0.009976468123459346,-1.0942576341055041,0.4591199006960127,-1.559262752942193,1.9775206504195642,-5.175722992721081,-1.53246142582969,-1.077116098066193,-4.31281086968079
2022-12-06 15:43:59.0550,-0.020440098491158395,-0.9347753218884063,0.3334428085945029,-0.3443580681256982,0.4441185575550458,-4.211845924128446,-1.6197439369840894,-0.7759322196234205,-4.435873896744986
2022-12-06 15:43:59.0680,0.02562500612137353,-0.785002438937166,0.19179280812669477,0.09293378654806532,-1.1104030374739096,-3.045256440553645,-1.6475382040186202,-0.4599024873952248,-4.4714334194284815
2022-12-06 15:43:59.0800,0.1349043469926694,-0.6643743387031211,0.04480229888624386,-0.17319146878515576,-2.4816109141042437,-1.765882724439776,-1.6154121201091036,-0.151725671189539,-4.422978255936266
2022-12-06 15:43:59.0890,0.2893164232351625,-0.5876210436762039,-0.09707417401748329,-0.9993359940245957,-3.492176853228874,-0.4731901823758653,-1.5268859011584326,0.12960787173117166,-4.298832580823856
2022-12-06 15:43:59.0990,0.46940529965272254,-0.5631122867090702,-0.22482007973023507,-2.207425272554583,-4.020207747699948,0.7405580670633264,-1.3881632342522607,0.37106059288153376,-4.110486464078516
2022-12-06 15:43:59.1090,0.6568365576081219,-0.5929688662056585,-0.33132549295685537,-3.6153003687940086,-4.008407877846772,1.7991955050615,-1.206952272131384,0.5663630494953308,-3.8705177875050696
2022-12-06 15:43:59.1190,0.8357396293116467,-0.6742835217465122,-0.41141951386967457,-5.056627112866322,-3.457935725945431,2.644963292035797,-0.9915944509340701,0.7153710446709748,-3.5910524240970094
2022-12-06 15:43:59.1300,0.993203919234893,-0.8007153368160279,-0.46179444427302974,-6.390449510869283,-2.41410655073639,3.238060491354457,-0.7505043087884564,0.8224054341308381,-3.283145201349331
2022-12-06 15:43:59.1400,1.1193172585912454,-0.9638830042491434,-0.4809468463797924,-7.5040786196493245,-0.9507697242944876,3.555856879609272,-0.4918657817828276,0.8942364033912323,-2.9569055772368347
2022-12-06 15:43:59.1490,1.2069779401258642,-1.1542454184114987,-0.46915694639314515,-8.312596402305791,0.8418892519233498,3.592429148494832,-0.22352321086557458,0.9383114611291248,-2.621922638188241
2022-12-06 15:43:59.1590,1.251563711624417,-1.3614514066585746,-0.428497851683409,-8.756558719279855,2.8641284980723873,3.3584843762830583,0.04700158332515064,0.9615855607249824,-2.2876172444898026
2022-12-06 15:43:59.1680,1.2505004523344243,-1.5743852125203728,-0.3628190659154184,-8.798432275251395,5.008826892073141,2.8814542389742197,0.3124273477160126,0.9700504459313738,-1.963405374940204
2022-12-06 15:43:59.1790,1.2028194606355147,-1.7812307176610638,-0.2775988138592318,-8.418284246765069,7.161828918169584,2.205010199040651,0.5656119028790207,0.9688279156937762,-1.658751054022331
2022-12-06 15:43:59.1890,1.1088528279663903,-1.969807085333041,-0.17958270514131036,-7.609830587005821,9.203521764639637,1.3869346993972382,0.7994780387078141,0.9625008345863123,-1.3832005338700242
2022-12-06 15:43:59.1990,0.9701953336300274,-2.128278367469139,-0.0762315510089058,-6.378344380516722,11.013604865193054,0.49486152325481625,1.0070251071556127,0.9552973579890605,-1.146381236238823
2022-12-06 15:43:59.2090,0.7899282334902403,-2.2461938199631035,0.024926994048074094,-4.7413206571192115,12.479489923110748,-0.39953753053930946,1.181466002798999,0.9508734846258203,-0.9578426418402841
2022-12-06 15:43:59.2200,0.5729371394232637,-2.315691010530906,0.11696616032990992,-2.731270789582518,13.507423461262672,-1.2269901586151846,1.3164850012588136,0.9516828135350995,-0.8266137040109018
2022-12-06 15:43:59.2290,0.3260668713561404,-2.332592640110306,0.19418644879552555,-0.39857953843822824,14.0342639569743,-1.927046529672067,1.4065855193534842,0.9581623587643376,-0.7604721554559002
2022-12-06 15:43:59.2390,0.057897581411685974,-2.2971016417020627,0.2526123844863849,2.1880886760879457,14.037042146431764,-2.4538209667516453,1.4474966226485682,0.9680889024724645,-0.7650644409701918
2022-12-06 15:43:59.2490,-0.2219062123759148,-2.2139008525337136,0.29025931349287826,4.94544006093809,13.537624001546824,-2.780087066923884,1.436606901196097,0.9764082749129553,-0.8430668824886312
2022-12-06 15:43:59.2590,-0.5035222231137784,-2.0916492344111246,0.30711002604191595,7.782965619193477,12.601224066821638,-2.8988093904615724,1.3733735653589876,0.9756697866904186,-0.9935410131878563
2022-12-06 15:43:59.2690,-0.7779126540287284,-1.94201833453176,0.30482597001735734,10.61209361623208,11.329349928909691,-2.8217752345013145,1.259622271114294,0.9570170004806537,-1.2115822921164312
2022-12-06 15:43:59.2790,-1.037540292578846,-1.7784661144380196,0.2863086917513562,13.354493209818562,9.848907417546993,-2.575918272973919,1.09965101723171,0.9115478795799231,-1.4883274427033941
2022-12-06 15:43:59.2890,-1.276699932093255,-1.6149253555542578,0.2552530750759759,15.947473542026898,8.299406713283954,-2.198662799002452,0.9001097295839756,0.8318194200338694,-1.8113484361585712
2022-12-06 15:43:59.2980,-1.4913911015253294,-1.4645294570466858,0.21576020840754018,18.34529209187133,6.819858543214735,-1.7335026474178572,0.6697181219635819,0.7133587458964082,-2.1653911901308502
2022-12-06 15:43:59.3090,-1.678746923421049,-1.3384382684996912,0.17197594871396155,20.515976210713198,5.536346337307605,-1.2260763531497452,0.4189341951835545,0.5561044328533532,-2.5333362280426273
2022-12-06 15:43:59.3180,-1.8361638032350616,-1.24481456380809,0.1277119112565543,22.43424362416988,4.55076727965779,-0.7202274819808676,0.15962726791711815,0.3655551564666604,-2.8972233198959962
2022-12-06 15:43:59.3280,-1.960414828596962,-1.1880658607970962,0.08609640061531607,24.072495996345133,3.9314093200671154,-0.25390731644299896,-0.09533250128027466,0.15312964745221525,-3.239211118910815
2022-12-06 15:43:59.3380,-2.0470676282846583,-1.1685289443882771,0.049356340568161364,25.392963140886295,3.70679065187971,0.14425589676539158,-0.3327235232960432,-0.06483850096787136,-3.5424112992038763
2022-12-06 15:43:59.3490,-2.090413615369995,-1.1827259393226377,0.018767737153215898,26.343873997365232,3.864487055026306,0.45676817596417246,-0.5398822044758446,-0.26968159184726626,-3.7916097036015013
2022-12-06 15:43:59.3590,-2.083925860544042,-1.2241522032544754,-0.00526491876744077,26.861002673718733,4.3556994172387515,0.6773373043134043,-0.7056828536142566,-0.4440120804648555,-3.9739001580994184
2022-12-06 15:43:59.3680,-2.02111174722229,-1.2843676456234783,-0.023027211965051225,26.874104020669794,5.10443922629683,0.8095616368192009,-0.8213700118839687,-0.5751359492364061,-4.079154896472953
2022-12-06 15:43:59.3790,-1.896566537470975,-1.354078578495348,-0.03520174523120185,26.316571741037237,6.018615997369258,0.8643234563851572,-0.8812091720585333,-0.656974450821332,-4.100122502307373
2022-12-06 15:43:59.3880,-1.7070468547034743,-1.4239662023335395,-0.04249789818252385,25.136355374657068,7.000047957983303,0.8559329413785404,-0.8830799486702329,-0.6899410796450135,-4.031974692635461
2022-12-06 15:43:59.3990,-1.452424174200581,-1.4851732383750165,-0.04533454693431043,23.306441531100976,7.951517716082218,0.7978483465096012,-0.8290820405847785,-0.6792468680056536,-3.8713774461217785
2022-12-06 15:43:59.4090,-1.1364149187018584,-1.5295084911297097,-0.04374513878168307,20.83362344235132,8.780556856547022,0.69962618039959,-0.7259998353552449,-0.6327045929605766,-3.6154388118719614
2022-12-06 15:43:59.4190,-0.7670067801794418,-1.5495396618063848,-0.03760304341442352,17.764619464178036,9.400973118095665,0.5666797378616754,-0.5852536670489802,-0.5589895519853271,-3.2609384117817126
2022-12-06 15:43:59.4300,-0.35652110050058156,-1.5387976347111203,-0.027110568500652053,14.188838112403904,9.734078509916124,0.4032944520729,-0.4219495283737259,-0.4667701897227755,-2.804079594917069
2022-12-06 15:43:59.4380,0.07871764806152241,-1.492257285471816,-0.013335683335275692,10.237345489678178,9.711770301400408,0.2176894077601934,-0.2529148305229998,-0.36458697786832717,-2.240863419747225
2022-12-06 15:43:59.4500,0.5190989783869375,-1.4070844749246991,0.001488066067904682,6.077945956616424,9.282573507040645,0.026596796522351588,-0.09405541450482738,-0.26104916265522093,-1.5682040336231535
2022-12-06 15:43:59.4590,0.9428115687572923,-1.2834395427065715,0.014107851059999395,1.9065888811050162,8.419803963892543,-0.1433126402521511,0.042282407299230614,-0.1648268556714305,-0.7859228298241593
2022-12-06 15:43:59.4700,1.3273032011881565,-1.1250217789494763,0.020864745923509342,-2.0646993741326347,7.129296497045136,-0.25859471531388883,0.14919408113462124,-0.0840264981121052,0.10050964501173736
2022-12-06 15:43:59.4800,1.6511430994573983,-0.9390818359185321,0.018577327003354956,-5.623485318779601,5.45362825224503,-0.28616463840609274,0.22578916438587593,-0.024854857988440483,1.0771891444932842
2022-12-06 15:43:59.4890,1.896229243122333,-0.7358038795945614,0.005353131557402156,-8.57630010500756,3.470676256422833,-0.2018053909073803,0.2763167919098884,0.010101427681317363,2.120126462849825
2022-12-06 15:43:59.4990,2.050048661606649,-0.5271898005620406,-0.019001666970300025,-10.770442526497222,1.2862978886078669,0.0034574843205469603,0.30826336996313475,0.023321273924010667,3.1957532777745263
2022-12-06 15:43:59.5090,2.107465780072769,-0.3257372680968473,-0.053108051134328586,-12.114434267526187,-0.9770153014492304,0.32176949247045983,0.33020791979379527,0.022839300656193703,4.26376351435571
2022-12-06 15:43:59.5190,2.071519546163713,-0.14320865469306665,-0.0945294768054698,-12.591758713654762,-3.1926522110090807,0.7318590079172147,0.3500999509252015,0.02148017777887356,5.281473772383748
2022-12-06 15:43:59.5290,1.9530046425021046,0.010317651812158981,-0.14035507960120475,-12.26371902524234,-5.241106052189778,1.2050697354304323,0.3741798582109514,0.0350518971496887,6.208407037261943
2022-12-06 15:43:59.5390,1.7690011136631651,0.12704556855122442,-0.18757917960823828,-11.260739611997629,-7.018526469838385,1.71072067178498,0.40641086439422075,0.07996640092907176,7.010023816185775
2022-12-06 15:43:59.5500,1.540768771882027,0.2017388105742035,-0.23321377800519977,-9.764910986441915,-8.442247985129233,2.218795718097892,0.448226691225463,0.17068511805233116,7.660099251199257
2022-12-06 15:43:59.5590,1.2914588914611025,0.2317652938763914,-0.2742498845513803,-7.988217536379507,-9.45370193562913,2.700153090735599,0.49850037234706895,0.3172381340982141,8.141742015619068
2022-12-06 15:43:59.5690,1.043990377857787,0.21700805691564218,-0.3076257834878768,-6.1505722191537595,-10.01950504854976,3.1257475003229596,0.5537329644345491,0.5230223578122324,8.44730105432394
2022-12-06 15:43:59.5810,0.8192970533813333,0.15972095294017172,-0.3303112079525797,-4.460512013900017,-10.13150622887839,3.4663343140750134,0.6084926934574174,0.7831347551102065,8.577473257560015
2022-12-06 15:43:59.5890,0.6350271262750121,0.06437188388086185,-0.33955238811627186,-3.1000600838138843,-9.806328317766763,3.6935356195831752,0.6561200830342979,1.083556258427482,8.539916700424142
2022-12-06 15:43:59.5990,0.5046726985896404,-0.06252879466199404,-0.3332591327369425,-2.2141096650037957,-9.0845933836615,3.782537933013312,0.689662955519174,1.4015095779040305,8.34764448723419
2022-12-06 15:43:59.6090,0.43703549918622014,-0.212667107642841,-0.3104491924056719,-1.9037726739541945,-8.0295790698318,3.716045643629681,0.7029350034501726,1.7072343174983284,8.01743188119824
2022-12-06 15:43:59.6190,0.43591101145692834,-0.3763153391912899,-0.2716174480815084,-2.222596767901737,-6.724626590539627,3.4884896123122675,0.6915338661322781,1.9672082056229623,7.568405979051806
2022-12-06 15:43:59.6290,0.49990292381873574,-0.5429437456221766,-0.21888567729120448,-3.174526350866688,-5.2684833558578195,3.109117770813729,0.6536267811001287,2.148462391392239,7.020896276258567
2022-12-06 15:43:59.6390,0.6223552766694068,-0.7020720876363538,-0.1558158692291336,-4.712965719158428,-3.7680839584629164,2.602585851276441,0.5903165451953073,2.223192476126781,6.395512666756638
2022-12-06 15:43:59.6490,0.7914914070969402,-0.8443176841136506,-0.0868415352244717,-6.74116634723917,-2.328874127369272,2.0060492442990507,0.5054406050370325,2.172606823080317,5.712315542289636
2022-12-06 15:43:59.6590,0.9909437707511515,-0.9625410187666223,-0.0163943096014893,-9.11516793777498,-1.0433663060601963,1.3626187828374394,0.4047455693800573,1.9891065110334596,4.989914739783734
2022-12-06 15:43:59.6690,1.2008963922971472,-1.0529184952757784,0.052042196535181544,-11.651295443042821,0.020807892078778253,0.7124073184977554,0.2945440554652791,1.676466316268434,4.244458147692606
2022-12-06 15:43:59.6790,1.3999768876255771,-1.1156737027896098,0.11660741424308146,-14.140204370403175,0.831265375882712,0.08389155567013813,0.18018692455980503,1.2484056978614266,3.4887441859151562
2022-12-06 15:43:59.6890,1.5677790206107536,-1.155133176706138,0.17716299238838817,-16.368053071980892,1.3966254453822824,-0.5109780781180029,0.06484533841454854,0.7263714665488076,2.7319123453820535
2022-12-06 15:43:59.6980,1.6875227448504055,-1.178862480192564,0.23474753541740584,-18.142338678852518,1.764417293668282,-1.0755604965171013,-0.05097887760628206,0.1372643550680114,1.9800336930694886
2022-12-06 15:43:59.7090,1.7481012717676288,-1.1959442464864387,0.29063269668492075,-19.31638406340098,2.009626723118709,-1.6216315016088805,-0.16911325602932104,-0.4885680533649547,1.2374294303941387
2022-12-06 15:43:59.7180,1.7449228208192458,-1.2148316420519767,0.3453927630946167,-19.80519604602034,2.2159224154732464,-2.1600146065393067,-0.2927832100025023,-1.1190627724885598,0.5080994690206788
2022-12-06 15:43:59.7290,1.6795416777160808,-1.2413626542563458,0.39831160846912306,-19.58873316615228,2.4547504586465685,-2.692636354298652,-0.42547328604987666,-1.7219309709731034,-0.203371940560622
2022-12-06 15:43:59.7380,1.558656486473505,-1.2773522184636208,0.44722154593140007,-18.704964365182995,2.767720669806683,-3.2083553437550894,-0.5698812732187315,-2.2658758382799777,-0.8916437042466585
2022-12-06 15:43:59.7480,1.3931481977969007,-1.319914477469636,0.4886760986855471,-17.239400925629827,3.15533575943899,-3.682673398503513,-0.7270590908901611,-2.7215402804052204,-1.5508151803544963
2022-12-06 15:43:59.7570,1.1974157901784728,-1.361573140290876,0.5183004647227216,-15.316598685855647,3.5729580600483466,-4.080009763189364,-0.8956804883955207,-3.062374555722748,-2.174374453857971
2022-12-06 15:43:59.7670,0.9887648330292762,-1.391303045776162,0.5312397335050475,-13.094200755100653,3.9348059130148836,-4.357196761470867,-1.0713953614624807,-3.2658364075387247,-2.754637990720236
2022-12-06 15:43:59.7770,0.786413461211041,-1.3967106261734212,0.5227426705236614,-10.755992811473941,4.12780860600296,-4.467896507973998,-1.2463682131686,-3.3152681917543587,-3.282056877397322
2022-12-06 15:43:59.7870,0.6098697126631716,-1.3673862501249465,0.4889663307306195,-8.500043403223504,4.037126555375666,-4.368624125463636,-1.4092337254087772,-3.202304405795311,-3.745033265718947
2022-12-06 15:43:59.7970,0.47678019366665936,-1.2988843848584843,0.42804547704847873,-6.52071537596156,3.5820676226989034,-4.027193748661473,-1.5458102543684507,-2.9292288526273844,-4.130592054768494
2022-12-06 15:43:59.8080,0.40059933041924317,-1.195921716663476,0.34132143885381405,-4.9865541791998895,2.753966822435939,-3.433730794733576,-1.6408749998779562,-2.5107761244818763,-4.425763777752385
2022-12-06 15:43:59.8170,0.3885311430067134,-1.0730033602793299,0.23427103577676073,-4.0179054494046005,1.6396469335900703,-2.612289105373661,-1.6808586763295417,-1.974937938685618,-4.619313622947507
2022-12-06 15:43:59.8270,0.4402401708703649,-0.9516662719223425,0.11634115934633513,-3.668848984151879,0.4148007666756662,-1.6270819411140467,-1.656589107614369,-1.361851772441783,-4.703516079246369
2022-12-06 15:43:59.8370,0.5477612820371459,-0.8553690347470743,-0.0007430196568646637,-3.918275051923361,-0.694019765573414,-0.575707822126624,-1.56492685454887,-0.7197614584775005,-4.675708464450113
2022-12-06 15:43:59.8490,0.6966800117334198,-0.8041243925908542,-0.1055186846585268,-4.673399627294583,-1.4631038104817888,0.43131977422864265,-1.408753901988707,-0.09837374837713676,-4.539286692354196
2022-12-06 15:43:59.8610,0.8681217459645871,-0.8106092637398659,-0.18885354822149167,-5.784508358308477,-1.7203167326432327,1.294540779991573,-1.1957339954111008,0.45836173865117247,-4.3039017962533865
2022-12-06 15:43:59.8700,1.0408757093179657,-0.878483962531603,-0.2448485156177763,-7.065073104486417,-1.375345954663356,1.9411887897295594,-0.9366724173947123,0.9177457072325983,-3.9849529637786683
2022-12-06 15:43:59.8790,1.193318380633837,-1.0027915858267826,-0.2708546995616108,-8.311414033749369,-0.4278130723397602,2.32977758080539,-0.6440835014288546,1.260960875408516,-3.6027156400199494
2022-12-06 15:43:59.8890,1.305264935921203,-1.1718181316581193,-0.2671221915400776,-9.320558863658949,1.0431905530686276,2.4482504379222307,-0.33121275310994513,1.482979868090269,-3.1813183525253113
2022-12-06 15:43:59.9000,1.3599570912101868,-1.3696562106171941,-0.23634618442243577,-9.908442305394955,2.901173972932805,2.3099492615890282,-0.011495250960643627,1.5904784268803756,-2.747458041267932
2022-12-06 15:43:59.9090,1.346075219791149,-1.5787670183602065,-0.18322271819279323,-9.929646287341408,4.9785211747164535,1.949169205505336,0.3017188461404456,1.5985811321786743,-2.3286039886628895
2022-12-06 15:43:59.9190,1.259284377375628,-1.7819969642326738,-0.11404903386438854,-9.296082003122326,7.100434997947885,1.4171040943952364,0.5953529460576971,1.5272436462441703,-1.9506723606667888
2022-12-06 15:43:59.9290,1.102733494670725,-1.96385704085081,-0.03628079420500454,-7.989053018361443,9.102227549064136,0.7780414328493421,0.856837589367618,1.3980040032779415,-1.6355772824204373
2022-12-06 15:43:59.9390,0.8862326359800747,-2.111307777314581,0.04207531970916252,-6.059737208490823,10.839709071067835,0.10462510772137278,1.0744896642412425,1.2316184888815995,-1.3992952374222338
2022-12-06 15:43:59.9510,0.6243144093943799,-2.214481148755169,0.1132546719511279,-3.6171124080798656,12.196197080216194,-0.5287088795612429,1.2380725337887621,1.046716764267301,-1.25091576571799
2022-12-06 15:43:59.9590,0.33370406762035554,-2.267543241147243,0.1706151782309627,-0.8067545968665053,13.090016390887754,-1.0538267389818685,1.3394485293856944,0.8592039020150446,-1.1927665394262434
2022-12-06 15:43:59.9690,0.030760027808013284,-2.26945408052761,0.2094195708247843,2.2140264513952417,13.482928858723998,-1.41719258344899,1.3731695173422012,0.681953081988203,-1.221384635604607
2022-12-06 15:43:59.9800,-0.2706563538956163,-2.224124959757399,0.2273028811961693,5.29960541370093,13.385765303792908,-1.5863522911221086,1.3369192788208106,0.5245072563565396,-1.3289591925009219
2022-12-06 15:43:59.9890,-0.5605320287349047,-2.139668143205928,0.22429825419689137,8.333972612451586,12.856575905419446,-1.552685374813943,1.2318280967960806,0.39283088365807123,-1.504847310001275
2022-12-06 15:43:59.9990,-0.8330684836872638,-2.0269107370105743,0.20247859206236146,11.24021151101588,11.989967238116883,-1.329829249271209,1.0626852934976483,0.2892770313262721,-1.7368374400602808
2022-12-06 15:44:00.0090,-1.0860809389997337,-1.897686910129668,0.16541381754457435,13.980236747965398,10.900920561261042,-0.949001447000986,0.8379839963945872,0.21279541057999446,-2.011991812043978
2022-12-06 15:44:00.0190,-1.319673048706319,-1.763410882361302,0.1176291147072689,16.54583231052514,9.708480806327008,-0.4533416866632362,0.569674597983327,0.15925360292843668,-2.3170903221527883
2022-12-06 15:44:00.0290,-1.5345437110040316,-1.6341720912884572,0.06410723461781473,18.943908960282062,8.523440296326212,0.10734146211596579,0.27256675660294505,0.12184047379459254,-2.638850510594438
2022-12-06 15:44:00.0380,-1.730281678086067,-1.5182889143868656,0.009783293340448593,21.17954831758368,7.441207605230176,0.6814939129901482,-0.036558880747978945,0.09182095688096681,-2.9641199765075448
2022-12-06 15:44:00.0480,-1.9039673073078887,-1.4220769724281592,-0.04094683316665661,23.240174256224552,6.538356112105781,1.2208413187341047,-0.3400432231573499,0.059988805823468924,-3.280072820014834
2022-12-06 15:44:00.0580,-2.0493834972824234,-1.3496439705436059,-0.08457165001278215,25.08388954900709,5.870384772804282,1.6848533704952076,-0.6206340641855336,0.018703236327316533,-3.574251516826956
2022-12-06 15:44:00.0700,-2.157097966922195,-1.3027445150521562,-0.1185760037087448,26.634848944380145,5.46958868089326,2.04332411990313,-0.8629260197687334,-0.03626152655247569,-3.8343527523484986
2022-12-06 15:44:00.0790,-2.215526094504168,-1.2808550722819312,-0.1413822104073642,27.787813305641063,5.344075096058605,2.276754708197168,-1.054740257586544,-0.10497937888615096,-4.047923926341369
2022-12-06 15:44:00.0890,-2.2128106854873337,-1.281515708734604,-0.15223097581208364,28.42204002190301,5.479334948898571,2.3754637641419576,-1.1881331041900876,-0.18406476157305765,-4.2022788446543204
2022-12-06 15:44:00.0990,-2.139071950225859,-1.3007893905635606,-0.15104413194597213,28.421809696502436,5.842085147614037,2.338264286864538,-1.2598559997392103,-0.2682132751440554,-4.284793898958517
2022-12-06 15:44:00.1080,-1.988427150973366,-1.3336374638576485,-0.1382641313156936,27.698443713609674,6.384538420989254,2.170837550601599,-1.2713242679692882,-0.351603742368389,-4.283492750097124
2022-12-06 15:44:00.1190,-1.760256998544587,-1.3741181574159804,-0.1146820220962293,26.20791821790086,7.047442660929277,1.8838026246408128,-1.228287781749478,-0.4285877847591281,-4.187705290981284
2022-12-06 15:44:00.1280,-1.4595014922570178,-1.4154489479888799,-0.08128772211535788,23.959848658017204,7.761528552099459,1.4907665906426535,-1.140360665566138,-0.49385925969533656,-3.9886200406242334
2022-12-06 15:44:00.1380,-1.0961342193774763,-1.4500572921481951,-0.03918292978483103,21.017091714787373,8.448129079211279,1.0067629191311485,-1.0204219428888495,-0.5426871466725578,-3.6796128533254766
2022-12-06 15:44:00.1490,-0.6841752470193943,-1.4697905459976355,0.01038936684102857,17.488441069617274,9.020374135697754,0.44750698624765367,-0.8837512070990241,-0.5715722075374184,-3.2562889648467412
2022-12-06 15:44:00.1590,-0.24059400346650814,-1.4664573051630454,0.06584252029330011,13.518135852995842,9.386686311228173,-0.16997956181289617,-0.7467027834947292,-0.5792134142404259,-2.716302011801427
2022-12-06 15:44:00.1690,0.21568389395506204,-1.4327791774124905,0.1248881784664506,9.275214644287464,9.458023329883842,-0.8249956885830589,-0.62482116101657,-0.5673875689899436,-2.0592277129144225
2022-12-06 15:44:00.1790,0.664617112390646,-1.363635776758661,0.18419351712002754,4.944225020847683,9.158990665305588,-1.4897042789205663,-0.530582322500754,-0.5412998896198633,-1.2869282807636684
2022-12-06 15:44:00.1890,1.0858272423532482,-1.257273828998082,0.2393328063038615,0.7172476566473087,8.440845091390099,-2.1267666743601694,-0.4712900995313122,-0.508976148045156,-0.4047550981829717
2022-12-06 15:44:00.1990,1.459481897786107,-1.1160619133468868,0.2852286095066381,-3.213955705914164,7.292660315182902,-2.690685123082156,-0.44781399292238544,-0.47941703328658214,0.5764807310457446
2022-12-06 15:44:00.2090,1.7674264408292402,-0.9464879271528039,0.317020660404257,-6.667249799602808,5.7467835016734,-3.133841926231367,-0.45464748247237985,-0.45973185638798775,1.6384406666795417
2022-12-06 15:44:00.2180,1.9945850757399433,-0.7583705503536181,0.3310527934381935,-9.481891856727858,3.8765157779229162,-3.415509524966856,-0.48127495044165175,-0.45211414673606626,2.754154937057354
2022-12-06 15:44:00.2290,2.130475094724255,-0.5635359873595587,0.32559534397671214,-11.53236675506979,1.7867605855588813,-3.510327323880834,-0.51435483624424,-0.4517885458732755,3.8887364792936094
2022-12-06 15:44:00.2380,2.170536702574729,-0.3743448211764204,0.3010574433319994,-12.742259757774972,-0.39937112751409504,-3.41295456610612,-0.540046346571011,-0.44670885752063855,5.002003377562455
2022-12-06 15:44:00.2490,2.116955161927668,-0.20240316856461327,0.25970857186635155,-13.095106011971936,-2.5544081508171392,-3.1375551346600945,-0.5459856345227486,-0.4191128586395708,6.052304190379923
2022-12-06 15:44:00.2590,1.9787538705760166,-0.057638802097889005,0.20515083863464526,-12.639379250605856,-4.5581471836143965,-2.71336370394805,-0.5227277966667198,-0.3485063706785629,7.000506009936563
2022-12-06 15:44:00.2690,1.7711086430600336,0.05223471638833194,0.14181447867547184,-11.486105039142268,-6.305901533561609,-2.179123871725323,-0.464658288821377,-0.2154637349500601,7.813288333181939
2022-12-06 15:44:00.2780,1.5140071143275795,0.12194981381151346,0.07461644328082773,-9.79931516004824,-7.713525073178499,-1.57872140705919,-0.37042218831668916,-0.005660845395647129,8.465316519297799
2022-12-06 15:44:00.2890,1.2305035655752328,0.1487291846727596,0.00877197775641814,-7.781113861868272,-8.720105508588125,-0.9587615039507398,-0.2429340874651373,0.2864056721018186,8.940261391957392
2022-12-06 15:44:00.2990,0.9448552553270296,0.13222777903840435,-0.050340926847788896,-5.654058041211031,-9.289257086149147,-0.3675309840369088,-0.0890375830616671,0.6545638828732535,9.230852595253824
2022-12-06 15:44:00.3090,0.6807578982185407,0.07440883607029308,-0.09740074375700097,-3.643489495047495,-9.40952120970722,0.14590563882577642,0.08115209675187139,1.0795227343150988,9.338213653994895
2022-12-06 15:44:00.3190,0.4597713463618779,-0.020635999459464968,-0.12755456381972613,-1.9614773765922269,-9.093988463523413,0.5338930658149539,0.2552257796968611,1.5293283706682903,9.270697371771146
2022-12-06 15:44:00.3280,0.2999148722624171,-0.14691540558751143,-0.13703049713931323,-0.792749287597327,-8.379136060259432,0.754518920145312,0.41975333838338136,1.9620410605310394,9.042387446545046
2022-12-06 15:44:00.3390,0.2143660313518623,-0.29681146936835034,-0.12383406021245905,-0.2820852282921323,-7.322908044961876,0.7777789133359339,0.5617471877577527,2.330588467494039,8.671400078331589
2022-12-06 15:44:00.3490,0.21023600167834708,-0.46141027401181206,-0.08833548379342085,-0.5225037511842823,-6.002024896201708,0.5921366498651233,0.6701428562292153,2.5891892681331368,8.17812819231518
2022-12-06 15:44:00.3590,0.28750402674590786,-0.6309355651508447,-0.03353239095884505,-1.5442516703157065,-4.508305595747698,0.209463392601704,0.7370853162877763,2.700162686247894,7.583605663544185
2022-12-06 15:44:00.3690,0.4383288515076145,-0.7953696167529272,0.03520917861340095,-3.305864816859099,-2.94345264136747,-0.3337837224594815,0.7587866779470038,2.639640834684694,6.908169708661303
2022-12-06 15:44:00.3800,0.64705113299724,-0.9453621006787003,0.11103627504081347,-5.689855042421426,-1.4114205165023161,-0.9809293091192635,0.7357241417916807,2.4008848104464877,6.170500915941678
2022-12-06 15:44:00.3890,0.8911979242312928,-1.0734670363073313,0.18700033555197917,-8.506237411965063,-0.007545970143666793,-1.665434634275388,0.6720253187685891,1.9945457220737077,5.386961432877946
2022-12-06 15:44:00.3990,1.1436716931693316,-1.1755608461899971,0.25757529906648685,-11.506638668523598,1.1953542159564492,-2.325236065346081,0.5740828202907832,1.4460810225070673,4.571115136748525
2022-12-06 15:44:00.4090,1.3760581548539563,-1.2520025642964443,0.31975545581944664,-14.410016325472736,2.161410321153915,-2.9165639325293937,0.44872545664717406,0.791301900054771,3.733510753594488
2022-12-06 15:44:00.4200,1.5626235500113899,-1.307871255047448,0.3732792156539492,-16.938165301738444,2.9012360659475163,-3.421906097678008,0.30151211369851416,0.07138777151676258,2.8820392631528184
2022-12-06 15:44:00.4290,1.6841478396796725,-1.351763909649044,0.4198863375803345,-18.85528167922819,3.4699701864557966,-3.848718088567932,0.1357222838770612,-0.6714792863398676,2.0230807019940915
2022-12-06 15:44:00.4390,1.7305090170036677,-1.3932812730951862,0.4619602311037386,-20.0020103734762,3.9506241539431444,-4.219583063790486,-0.047672407133822835,-1.3972989878032753,1.1631616701069145
2022-12-06 15:44:00.4490,1.701248645554389,-1.440049519978304,0.5011507865788262,-20.31380622260442,4.426900412377029,-4.558424778911326,-0.24920808869419167,-2.0702630858137385,0.31037150972920236
2022-12-06 15:44:00.4590,1.6042052199962922,-1.4953000124840188,0.5374625136447844,-19.818803549370827,4.955261845928194,-4.878515281357437,-0.4697412452113822,-2.6597787623298665,-0.525139969033405
2022-12-06 15:44:00.4690,1.453130384978865,-1.5565959421119824,0.5689460549350783,-18.619472092518336,5.545153210198807,-5.175835102187983,-0.7092612474079255,-3.140617180602116,-1.331612429355414
2022-12-06 15:44:00.4790,1.2653822590911654,-1.6157870600349997,0.5918345596681645,-16.86853790106001,6.1510348240206385,-5.427840143267347,-0.9658206623073118,-3.4923634229334293,-2.096440321123161
2022-12-06 15:44:00.4890,1.0602731649784403,-1.6601131463080472,0.6009188422865579,-14.748571221428561,6.675980405811709,-5.595613628240997,-1.234533785016972,-3.6986456893684165,-2.806514092957938
2022-12-06 15:44:00.4990,0.8579254351299027,-1.6744805284316948,0.590118097408939,-12.45817872443166,6.986344157173492,-5.627848195410974,-1.5066448728437074,-3.7468756837879393,-3.447901821924271
2022-12-06 15:44:00.5090,0.678092422295835,-1.6449377924131792,0.5533883694279516,-10.201387186018108,6.938119707155354,-5.466990721114673,-1.7688464267904283,-3.6291582069679404,-4.005315897995493
2022-12-06 15:44:00.5190,0.5385206099600974,-1.5629765035773693,0.48615425725528705,-8.174809866117,6.41437853005187,-5.059328025072312,-2.0033787184855387,-3.3446371997799336,-4.462154390409931
2022-12-06 15:44:00.5290,0.4528558736061172,-1.4295181480043513,0.38722272795649504,-6.5497807857950665,5.367581118155526,-4.37042793889572,-2.1897590405047134,-2.90295186783461,-4.801745479873749
2022-12-06 15:44:00.5390,0.4285289710092846,-1.2568825842780458,0.2605664756130347,-5.4510572982584655,3.8528483734022725,-3.4039327991250623,-2.3084025628711395,-2.327586966473311,-5.009931390860847
2022-12-06 15:44:00.5490,0.46532572281649465,-1.0674409088854764,0.11579615031852976,-4.937475325390765,2.0355789907616186,-2.215442348875237,-2.3448701560894523,-1.6568942671003042,-5.078496581076828
2022-12-06 15:44:00.5590,0.5553055099334384,-0.8890798762692059,-0.0335204017119951,-4.991744067954706,0.1651461836267367,-0.9098876819149145,-2.292749825359487,-0.9407036419958933,-5.008310601487484
2022-12-06 15:44:00.5700,0.6842199022745412,-0.7490349247762902,-0.1730490799764333,-5.524585162488167,-1.4781186619099764,0.3812950698255956,-2.1542243327253763,-0.23271741672006502,-4.810805540363329
2022-12-06 15:44:00.5790,0.833815133137566,-0.6681336680093928,-0.2906294063940216,-6.3919576459325205,-2.644254691426414,1.5316049176806343,-1.9387929615590176,0.41841479911016416,-4.5070327947269595
2022-12-06 15:44:00.5890,0.984083415512276,-0.6570414655896988,-0.3778241065010463,-7.417435523383061,-3.164077090367516,2.4428796243178788,-1.661034359882436,0.9759886578454073,-4.124798263094686
2022-12-06 15:44:00.5980,1.1150371426525172,-0.715207711152155,-0.4302801089108563,-8.411830653292988,-2.9761045956260763,3.0547887056276752,-1.338086015844695,1.4184753495682492,-3.695202893900217
2022-12-06 15:44:00.6090,1.2082915325178207,-0.832303709570793,-0.44750754568588985,-9.18889952988363,-2.1267496795930465,3.345293210459322,-0.9873802891162233,1.7393102916667955,-3.249710553106102
2022-12-06 15:44:00.6190,1.2488741454429668,-0.9913487113284147,-0.4323236658556654,-9.58123996339772,-0.748531779949916,3.326985643704168,-0.6250775777862613,1.9443241047315412,-2.81807842878396
2022-12-06 15:44:00.6290,1.2272728824793588,-1.1725001120624277,-0.39004491929154445,-9.4592965930099,0.9746055416285294,3.040558108338889,-0.2653380548038776,2.0479354941022785,-2.4268135863242426
2022-12-06 15:44:00.6390,1.1412312115789895,-1.3564873642341209,-0.32763718668684166,-8.751600210418268,2.844587026024153,2.5464803215579295,0.07978758596248435,2.0689827738155575,-2.097626015353993
2022-12-06 15:44:00.6490,0.996500407842986,-1.5269262143669413,-0.253011180159854,-7.4599455156761705,4.679623824039387,1.9171724488299413,0.40018381830472116,2.0269346177270386,-1.845724556362575
2022-12-06 15:44:00.6590,0.8059117372503588,-1.671341659844323,-0.17439775473913835,-5.6616926987879745,6.332089795746142,1.230693300625775,0.6874129379096725,1.939102176543325,-1.6784370438301854
2022-12-06 15:44:00.6700,0.5867774283392243,-1.7813604924403224,-0.09962198421764637,-3.4948514596952314,7.694722632857031,0.5645093767708715,0.9344411334630955,1.8191417363332152,-1.5949047619352212
2022-12-06 15:44:00.6800,0.35734166223722347,-1.8527205681692904,-0.035275548394609564,-1.1288061928781141,8.701083117962652,-0.01202350286594109,1.1353648196442017,1.6766959256524674,-1.5872382371260507
2022-12-06 15:44:00.6890,0.1332924876767745,-1.8853657206773489,0.014018878951946132,1.2706867092988996,9.32580887117836,-0.44559372973124395,1.2851290508367206,1.5177590781269001,-1.6428826738207123
2022-12-06 15:44:00.6990,-0.07481456059528536,-1.883355120567573,0.04603567984664011,3.5726301831989606,9.585236141478196,-0.7051203724687637,1.3792791082885623,1.3453892949274378,-1.7474970699365877
2022-12-06 15:44:00.7090,-0.26271775693833416,-1.8541507182798547,0.06092917660390206,5.700949127652532,9.534524465699189,-0.7842930583230093,1.413903179511892,1.1606153382846114,-1.8875757107247093
2022-12-06 15:44:00.7190,-0.4320811541811842,-1.8071964756518792,0.060773131853066584,7.640152646722875,9.257833961757434,-0.699538407035312,1.3859391546634696,0.9635351311001582,-2.0522491678044634
2022-12-06 15:44:00.7290,-0.5888601469944893,-1.7521824103653365,0.04881872094471174,9.426762702379401,8.852601309563623,-0.4840205142374952,1.293869559136482,0.7544988453017085,-2.2340216723197304
2022-12-06 15:44:00.7390,-0.7409191648063612,-1.6975517756597698,0.0287025755528874,11.130140923300207,8.41282990390128,-0.17964236247188442,1.1386449796394085,0.5350686402075276,-2.42850535789051
2022-12-06 15:44:00.7490,-0.8954801199792151,-1.6496179051078974,0.0037893394275611224,12.82815310669726,8.016435525005003,0.17076082637229348,0.9245821161554421,0.30844114220533536,-2.6334390973366886
2022-12-06 15:44:00.7590,-1.0568911892922301,-1.6123467605197954,-0.023251816173286685,14.58307635227596,7.71907918511084,0.5295242085303362,0.659987097696115,0.07926133873595664,-2.8473828199486393
2022-12-06 15:44:00.7690,-1.225054903733064,-1.587616758113867,-0.05059906710149916,16.42199922070697,7.553992415707768,0.8677931714332873,0.3572994755191257,-0.146961718024744,-3.068432916145649
2022-12-06 15:44:00.7790,-1.3947012218034995,-1.5756592586005413,-0.07716865391364473,18.324458220651735,7.5353665862564565,1.1664521277527033,0.03260456175406034,-0.3645105919538898,-3.2931666551260226
2022-12-06 15:44:00.7890,-1.555563694450808,-1.5754383808658838,-0.1023134899988244,20.21864278734507,7.662421218235259,1.4145954159323146,-0.295547498108285,-0.5679262260559748,-3.5158916798321918
2022-12-06 15:44:00.7990,-1.6934134089324675,-1.584897915767208,-0.12545032463703748,21.986358398603773,7.9223507728289935,1.6063888762890965,-0.607921896641527,-0.7521989540131244,-3.728193694942559
2022-12-06 15:44:00.8090,-1.7918099443797004,-1.601142652449954,-0.14575013313331944,23.475967666874286,8.292087648424772,1.737574640306998,-0.8867058141291257,-0.9128266801913238,-3.918734740945819
2022-12-06 15:44:00.8190,-1.834334962508803,-1.6206251611901112,-0.16199863226749975,24.521595952387344,8.739742659810899,1.802861822393909,-1.1175414213143908,-1.046021996194241,-4.073274871684521
2022-12-06 15:44:00.8300,-1.8069839140274824,-1.639325651229836,-0.17266648625682401,24.96596968538726,9.226172366157419,1.7950399345954424,-1.2910707066878542,-1.1491823667961338,-4.174991800129965
2022-12-06 15:44:00.8390,-1.7003211859815612,-1.6528701493317262,-0.17613030029902113,24.683405354249526,9.706327231133944,1.7058666659783053,-1.4037056301161392,-1.221365026055411,-4.205270661756255
2022-12-06 15:44:00.8490,-1.5110053136530543,-1.6565794902508817,-0.1709156662804725,23.598974264259724,10.129973441008538,1.5278591395715075,-1.457564144066402,-1.2633628518857385,-4.1450548655960775
2022-12-06 15:44:00.8590,-1.2424194712625152,-1.6455178603229819,-0.15586390747685755,21.70031398079168,10.442060028982851,1.2557911768524828,-1.4597298336147169,-1.277268787404473,-3.9765593234646133
2022-12-06 15:44:00.8690,-0.9043828162070118,-1.6146485228795255,-0.13023084029045268,19.040298510463284,10.583646647627809,0.8873832242578602,-1.4211008819381974,-1.2658666769186493,-3.6849059919406195
2022-12-06 15:44:00.8790,-0.5121545352192755,-1.559198600342301,-0.09380625391766931,15.731273108135513,10.494471177110274,0.4237094425228066,-1.3550508407132826,-1.2323409090261983,-3.259302572436325
2022-12-06 15:44:00.8890,-0.08504925388036831,-1.4752901806890595,-0.047130109793767756,11.933490892049184,10.118008451968302,-0.1297297054343783,-1.2759783319786386,-1.1804744142112638,-2.6936856946262417
2022-12-06 15:44:00.8990,0.3550565118228189,-1.3607907023798067,0.008220618438154035,7.840854593854993,9.40922500809535,-0.7608387743072458,-1.1977292995486781,-1.1149955390691901,-1.987063861132589
2022-12-06 15:44:00.9090,0.7851577652272069,-1.216178899055599,0.0694364137311319,3.6663502370381122,8.343968890169432,-1.4484341233069171,-1.131960717401607,-1.0414808630466803,-1.1439613551424277
2022-12-06 15:44:00.9190,1.1824459916425474,-1.0451061549298766,0.13259426333372343,-0.3715675921554785,6.92741988229076,-2.161350520965901,-1.0866966686102757,-0.9653527803886065,-0.1752660236127203
2022-12-06 15:44:00.9290,1.5255827641574666,-0.8543771319374233,0.19320390555113312,-4.0615032570714344,5.198403423878368,-2.8610454581559566,-1.0654015875973433,-0.889913674543887,0.9006044122226039
2022-12-06 15:44:00.9390,1.7960278078449725,-0.6532980769065291,0.2470494762337735,-7.211324785748141,3.2275373591217824,-3.50788226130754,-1.0667896989922538,-0.8139351365792701,2.056784753630816
2022-12-06 15:44:00.9490,1.979466610395932,-0.4526120993841768,0.29100191911541845,-9.660992594630386,1.1097067734811545,-4.068935463166557,-1.0853846572784573,-0.7298308254364353,3.258080085374672
2022-12-06 15:44:00.9590,2.0672346671495925,-0.2633678243578143,0.32350198879390973,-11.296032545714231,-1.0463980599493228,-4.524099775542792,-1.1126415629340727,-0.6234544119671496,4.462623237032513
2022-12-06 15:44:00.9700,2.0575066558939064,-0.09598393174731902,0.3446248384152175,-12.060189600052581,-3.128518245591529,-4.86839092992477,-1.1383400879045023,-0.47597253064403,5.624941803101725
2022-12-06 15:44:00.9800,1.9559816280488367,0.04041364502431937,0.3558454877925551,-11.964843847427066,-5.029026597289287,-5.1105837777033685,-1.151990392546024,-0.2674979712182073,6.699768854597321
2022-12-06 15:44:00.9890,1.7758406145110235,0.13844701942470677,0.3596910531256369,-11.092743689148502,-6.651015815423755,-5.269899916169973,-1.1440930349190015,0.0183232330531035,7.645800664889537
2022-12-06 15:44:00.9990,1.536861333967671,0.19283830936825497,0.3594041267697327,-9.594278899950625,-7.913145800080749,-5.372507640953492,-1.1071764082421864,0.3897307634750767,8.428807735414768
2022-12-06 15:44:01.0080,1.2637344180321564,0.2007158962915917,0.3586398244578716,-7.675755807833023,-8.754069240987022,-5.448672022348768,-1.036584555480841,0.8432020329338895,9.023806342491236
2022-12-06 15:44:01.0170,0.9837855249731686,0.16185756507186294,0.3611427178313602,-5.58075080471384,-9.13657576324702,-5.530377321342571,-0.9310058164119884,1.36154574890787,9.416244968118125
2022-12-06 15:44:01.0290,0.7243893615051715,0.07881240135307715,0.37032472373311576,-3.5669416700643466,-9.05091807233047,-5.648622499198134,-0.792704107239068,1.9143307177175095,9.60228813748484
2022-12-06 15:44:01.0390,0.5103391892036854,-0.04314305606191652,0.38870694323289284,-1.8811734502149526,-8.516607706016202,-5.829547102370794,-0.627370142820747,2.4608701432492266,9.588263410908528
2022-12-06 15:44:01.0480,0.3613728815040965,-0.19622115015866715,0.41729774020937527,-0.7349986460488753,-7.582271433427725,-6.0892271428297216,-0.4435335580627307,2.95541584276433,9.389270193618742
2022-12-06 15:44:01.0560,0.29004529963998954,-0.3705007546129927,0.45510005084151894,-0.28239412979603173,-6.323542770490025,-6.42821918107836,-0.251589361984595,3.3535698536293026,9.026997150861487
2022-12-06 15:44:01.0670,0.30020182157067865,-0.5544835838581085,0.4989840555790237,-0.6015551204258474,-4.839023545749095,-6.827982276030655,-0.06260095085527036,3.6185112795606647,8.526966095813863
2022-12-06 15:44:01.0790,0.3863767148291048,-0.7359028622918364,0.5440777480744147,-1.6834774808627064,-3.2439559731958862,-7.251352740364723,0.1129222157280565,3.725763068283168,7.915569579142055
2022-12-06 15:44:01.0890,0.5344025977395191,-0.9028714724968168,0.5846451828838402,-3.4304903392644963,-1.6607868407576645,-7.648043528835757,0.2660692325269708,3.665790728581002,7.217321687243479
2022-12-06 15:44:01.0990,0.7233344050524807,-1.04535969821869,0.6152283976077677,-5.667035578384362,-0.20604980932408468,-7.9642126635376735,0.3901842806865875,3.4442952118940986,6.452752256856336
2022-12-06 15:44:01.1090,0.9285281355193792,-1.1567809687627364,0.6317107197797993,-8.162842177223936,1.0255959898363562,-8.153442537925104,0.48098421394193874,3.0803874999714034,5.637388134731279
2022-12-06 15:44:01.1190,1.1254325881600011,-1.2352055983985546,0.6319615481208002,-10.666007634833832,1.9769714920428716,-8.185696970073387,0.5361836636370271,2.603085393389015,4.7821753389771375
2022-12-06 15:44:01.1290,1.2933538842359091,-1.2835985450784446,0.6158790043374385,-12.940704090420374,2.6381144081393586,-8.05134080579901,0.5549282864826766,2.0469090251718183,3.89533277515242
2022-12-06 15:44:01.1390,1.4182463056696077,-1.3087507672061975,0.5849355785830825,-14.80140415176102,3.044621684054568,-7.759377141735007,0.5374192062417606,1.4475375922853242,2.9850351683544636
2022-12-06 15:44:01.1490,1.4937481367903385,-1.319232261129559,0.5415794786045843,-16.134471821412617,3.263478615320529,-7.33197113856276,0.4849000457686437,0.8382613313638378,2.0618524191116343
2022-12-06 15:44:01.1590,1.5203289599544998,-1.3232124158829797,0.4888399803480031,-16.90135577946347,3.371984484269952,-6.798996386576913,0.3998491460633745,0.2475230711735579,1.1399265905087785
2022-12-06 15:44:01.1690,1.5031972009846473,-1.3268754827860412,0.4302165547868418,-17.124983211518927,3.4384021044297226,-6.195219825285976,0.28606110972827503,-0.3024085097949231,0.2365198478506246
2022-12-06 15:44:01.1790,1.4500102747052053,-1.3335968208614608,0.369620821047488,-16.86766889750894,3.5095765263394565,-5.559658985396599,0.1484275807560901,-0.7956445660692133,-0.6295982726631795
2022-12-06 15:44:01.1890,1.3692376264107113,-1.3436412076456075,0.3110593234696584,-16.210560835759587,3.6051939552249244,-4.9342146099647115,-0.007510654851405067,-1.2218641218655268,-1.4400213500765617
2022-12-06 15:44:01.1990,1.2694683771606687,-1.3541848413870916,0.2579591159241765,-15.241088756731086,3.7160126766020505,-4.3590682249512085,-0.17602686359722647,-1.574756984944527,-2.1781046669044213
2022-12-06 15:44:01.2090,1.1593941512660546,-1.3597337645778294,0.21232980612585312,-14.04906144687831,3.805084218412942,-3.8650427797525273,-0.3515158586199347,-1.8501302940631625,-2.829672703259415
2022-12-06 15:44:01.2190,1.047908874392762,-1.3531545607280446,0.17409283950421187,-12.727360285883817,3.8135353433828105,-3.4655602894166058,-0.5285581610612768,-2.0441471197912233,-3.383280645663731
2022-12-06 15:44:01.2290,0.9438451344242667,-1.3273997205055315,0.14088041030436074,-11.371682190999035,3.6728839809172467,-3.1514573658289424,-0.7017013116020319,-2.1521562293755125,-3.8304632467843045
2022-12-06 15:44:01.2390,0.8552121632072293,-1.2776905729567827,0.10850007501406783,-10.075708454336892,3.3236910184967194,-2.89127355986346,-0.8649985642740547,-2.1685404419658685,-4.166253517013525
2022-12-06 15:44:01.2490,0.788179050500698,-1.2035606761768243,0.07209254829546995,-8.921867702075875,2.7369006338529664,-2.6383921906753387,-1.0115563358848358,-2.087967372101034,-4.3898784367524115
2022-12-06 15:44:01.2590,0.7462309398422869,-1.1099359168826064,0.027738704221496848,-7.971065611879444,1.930912614468679,-2.3444496142769577,-1.13358894876773,-1.9081563490043874,-4.505223921768141
2022-12-06 15:44:01.2680,0.7298618053092917,-1.0066220933996295,-0.02608907626715359,-7.255624777472739,0.9764147406080573,-1.9753615712612087,-1.2233409239994726,-1.6335023655511565,-4.5206587392205435
2022-12-06 15:44:01.2790,0.73696747393914,-0.9062820392364577,-0.0880038241909979,-6.778423282225054,-0.015002510465711442,-1.5230093519467394,-1.2745550525809568,-1.2779084455512595,-4.448106023796033
2022-12-06 15:44:01.2890,0.7638461607644598,-0.8217183064853578,-0.15441721781399972,-6.519025874728867,-0.9145482381077414,-1.0059298063464002,-1.2836310256112589,-0.8649678547584974,-4.301590548969508
2022-12-06 15:44:01.2990,0.806404191370773,-0.7634291936630396,-0.22091001124784032,-6.4448128797312885,-1.602884259705686,-0.4591821692492814,-1.2499119611012368,-0.42485004645130714,-4.09562488234185
2022-12-06 15:44:01.3090,0.8609534153700099,-0.7380393482376264,-0.28333946562927786,-6.522074654916395,-1.9912579799979664,0.07866921982268923,-1.1752355108860026,0.010914676954563034,-3.843759315387601
2022-12-06 15:44:01.3190,0.9241615022732076,-0.747786187120813,-0.33831006646430384,-6.7210927623969825,-2.032916863573897,0.5737842337991789,-1.0632025205219136,0.41462145908189413,-3.55759049169595
2022-12-06 15:44:01.3290,0.9922540068697993,-0.7909563083853544,-0.38324424887713693,-7.01259652738238,-1.7242395224063827,0.9995799576604576,-0.9185053548171589,0.7659271402567381,-3.246502890879521
2022-12-06 15:44:01.3390,1.0600190315484275,-0.8629630448973757,-0.41633953237788585,-7.3585485444299525,-1.097452765807041,1.336715778897082,-0.7464839424732851,1.0532723691203523,-2.918272208056151
2022-12-06 15:44:01.3490,1.120210565802516,-0.9576377518833754,-0.4364907582631999,-7.703276284556004,-0.20852119351743145,1.5725375074721137,-0.5529550013065723,1.2735714128910296,-2.5803778625963973
2022-12-06 15:44:01.3590,1.1637054684781178,-1.0683184825549377,-0.44320877086580396,-7.970066698892878,0.8754744219135968,1.7002747183714948,-0.344241095084835,1.4307985157192178,-2.2415679269713227
2022-12-06 15:44:01.3690,1.1804676880306493,-1.1884783142467321,-0.43663506103168276,-8.065588896016994,2.085808467922042,1.7185151027195216,-0.12724166125509798,1.5340022531199087,-1.9130393545218631
2022-12-06 15:44:01.3790,1.1610918907813677,-1.3118847838228507,-0.4177021994853445,-7.891632521781492,3.3567576397494516,1.6319429689727802,0.09058630406152403,1.5951382171453956,-1.6086781236459105
2022-12-06 15:44:01.3890,1.0984850706203753,-1.4324980890649315,-0.3883159740946169,-7.361097008128556,4.6262030019738285,1.453225963169928,0.3013662679268502,1.6269931498396004,-1.3441762792579315
2022-12-06 15:44:01.3990,0.9891843945378378,-1.54440576858642,-0.3513619367916474,-6.41355421192693,5.834677638749993,1.2043404226006416,0.4970249752129153,1.6413616089248595,-1.1353226566707775
2022-12-06 15:44:01.4090,0.8339436244279356,-1.6420390432427725,-0.31044555470332563,-5.02581402041038,6.925700925839708,0.9156478538887561,0.6695699923014727,1.6475767443870042,-0.9960571228691777
2022-12-06 15:44:01.4180,0.6374850931512956,-1.7207560503645043,-0.2694064522874857,-3.2147991701207923,7.8492913263123425,0.6223769072917884,0.8113947599436033,1.6514923860963473,-0.9368461681801443
2022-12-06 15:44:01.4280,0.407571798469579,-1.7776724647521422,-0.2317163677050461,-1.0327208910135717,8.56876116518572,0.359227176271915,0.9155786698138042,1.6549915122415735,-0.9637112511736456
2022-12-06 15:44:01.4390,0.15370372526644346,-1.8124438703794477,-0.1999145261798186,1.4432989578868487,9.06892093017783,0.1543540984639254,0.9761772925702527,1.6560449810330236,-1.0780078943589615
2022-12-06 15:44:01.4490,-0.11420775851691102,-1.827649549258231,-0.1752478662243602,4.1239829410478865,9.362429383213552,0.02436780509861165,0.9885462974378783,1.6493128170201077,-1.276851765021977
2022-12-06 15:44:01.4590,-0.3868465472861974,-1.8285671404541726,-0.15762563501216517,6.919608818657206,9.49116888559145,-0.02811317687501779,0.949754889000558,1.6272495926776436,-1.553906948100251
2022-12-06 15:44:01.4690,-0.6559379831126759,-1.8223903821806238,-0.14588094894182577,9.747630226266734,9.521521543207035,-0.013642888301610343,0.859089713833681,1.5815774222172712,-1.9001667892588285
2022-12-06 15:44:01.4790,-0.9140902294481952,-1.8171310909984213,-0.13822063939210877,12.534497102910676,9.53493897389231,0.04763626430930109,0.7185505246452055,1.50483822406702,-2.3044376482961426
2022-12-06 15:44:01.4890,-1.1541997124621448,-1.8204608305800498,-0.13270054051931848,15.212055840211729,9.616400066478302,0.13092980231046816,0.5331603062385786,1.3916444731074185,-2.7534353441191275
2022-12-06 15:44:01.4990,-1.3687238055656477,-1.8386662413002648,-0.12760204315589646,17.7107689172712,9.84298992880783,0.21152110689800435,0.31092674504779994,1.2393271442741505,-3.231624915385793
2022-12-06 15:44:01.5100,-1.549157670272406,-1.875812908311194,-0.12166741697015046,19.952934131695883,10.273986077167242,0.2683165272528195,0.06240446485065508,1.0479339283476279,-3.721094698926195
2022-12-06 15:44:01.5190,-1.6859948090008616,-1.933149353896311,-0.11420934064433458,21.849093290659514,10.943153328094725,0.2860052874983796,-0.2000642370756339,0.8198132123744064,-4.201779169087801
2022-12-06 15:44:01.5290,-1.7692983916279965,-2.008738369399577,-0.10510664779798055,23.299931142118016,11.853382754437115,0.2559944440098406,-0.4632965287385192,0.5591427905188355,-4.652191038643707
2022-12-06 15:44:01.5400,-1.7897926838711231,-2.0973196000374785,-0.09466957313659287,24.204169983799634,12.973559625193301,0.17609444330803253,-0.7142869912287009,0.2716560118021449,-5.050555616691427
2022-12-06 15:44:01.5510,-1.7401966224576204,-2.1904777347213535,-0.08338174871182709,24.470805883648676,14.237979180275497,0.048793562658893556,-0.9411940394641706,-0.03544793492905603,-5.376011900745241
2022-12-06 15:44:01.5600,-1.6164568657231282,-2.277206697019927,-0.07160375812563932,24.032547696428907,15.549256698095839,-0.12152272898961591,-1.134175856890377,-0.35366484499557377,-5.609501460779361
2022-12-06 15:44:01.5700,-1.4186045783838326,-2.344850941530421,-0.059348211461600936,22.85716922629961,16.78534914064545,-0.33135418495552005,-1.2859766272682351,-0.6736712047920966,-5.734141387088565
2022-12-06 15:44:01.5790,-1.1511041750149755,-2.380266814936466,-0.04616904601138378,20.954476530235354,17.809921042962884,-0.5799723596064666,-1.3922535393036615,-0.9861327653618595,-5.735145692513475
2022-12-06 15:44:01.5890,-0.8227219220402893,-2.3710246664681067,-0.031162597788801854,18.37813606211348,18.484237291268027,-0.8702647735910722,-1.4516939198693457,-1.2825994723186316,-5.599537837064545
2022-12-06 15:44:01.5990,-0.4460544416759907,-2.306567720577225,-0.013124049648669499,15.223099750175416,18.679078800207005,-1.2084666431984998,-1.4659104697707726,-1.5562526894030253,-5.315925644215515
2022-12-06 15:44:01.6100,-0.036874698784382015,-2.1793361243647666,0.009072278004575992,11.620168115650632,18.286267901884916,-1.6021339899933944,-1.4390070568134972,-1.8023969091194825,-4.87458232971817
2022-12-06 15:44:01.6190,0.386604249279519,-1.9858542480207828,0.03590928088122331,7.72909194548016,17.229999545272154,-2.055902910295948,-1.376744286197601,-2.0186061651530203,-4.268075099150402
2022-12-06 15:44:01.6280,0.8045207364966063,-1.7276559724252143,0.06669558003168585,3.730954530384265,15.477626480210072,-2.566050962713939,-1.2854348778114821,-2.204326714865924,-3.4926309001012568
2022-12-06 15:44:01.6390,1.1962397596505325,-1.411773304190895,0.09935288845574235,-0.1800758809995306,13.048103846790278,-3.1163873115394916,-1.1708917040975257,-2.35973048531919,-2.5501869757911333
2022-12-06 15:44:01.6480,1.5413534102555684,-1.0504907397725316,0.130681422050101,-3.8059409678737137,10.015121910659754,-3.677986127839181,-1.0377228341239533,-2.483894221513065,-1.4506922063823824
2022-12-06 15:44:01.6590,1.8208031704415673,-0.6602638391947144,0.15701396859464736,-6.955055430769107,6.502488513389681,-4.213410317088966,-0.8890352573151171,-2.572802278312857,-0.21398140611267047
2022-12-06 15:44:01.6680,2.018081606000587,-0.26001536499148353,0.1750008129293567,-9.453547563369998,2.6718496774037064,-4.6837243371096,-0.7264348385438377,-2.6178950855240375,1.1293854569992188
2022-12-06 15:44:01.6790,2.1205102975097225,0.13076944943321572,0.18229303924623053,-11.156998653593147,-1.2942684142054806,-5.055690244289971,-0.5502450934536672,-2.605771791953501,2.5386745569852724
2022-12-06 15:44:01.6890,2.1206309774384597,0.4937413416387964,0.17800601324083692,-11.962910879482155,-5.2099024647718855,-5.307365392290955,-0.35995541931035036,-2.5193438039125486,3.9650317765286798
2022-12-06 15:44:01.6990,2.0176368131777416,0.8129286425576762,0.16290981208083197,-11.824141616321581,-8.900218732250027,-5.43137611354129,-0.15487185744490514,-2.3403935409867827,5.354914856615504
2022-12-06 15:44:01.7090,1.818530739075982,1.0754462475488558,0.1393336340963122,-10.76185831696996,-12.211537859648802,-5.435588467870396,0.0651598950514328,-2.0531758684484402,6.65448232865896
2022-12-06 15:44:01.7190,1.5385403865844343,1.2717357140644503,0.11085011907793225,-8.874242935971052,-15.016716501253784,-5.3413803546239995,0.29910735050690834,-1.6484179237226104,7.814231992386863
2022-12-06 15:44:01.7290,1.20042951769492,1.3954860361491244,0.08186405234844162,-6.336484976745543,-17.21690172639132,-5.180480221783309,0.544251879407791,-1.1268880702916977,8.793091946091977
2022-12-06 15:44:01.7390,0.8326919571936063,1.4434083569022946,0.05718769441327579,-3.3896945217917707,-18.741198990242427,-4.9915170060719065,0.7958516105854185,-0.5017134957053644,9.561351584445523
2022-12-06 15:44:01.7490,0.46695951522564,1.415020460155744,0.04158425650123264,-0.3200357050250038,-19.54577078028281,-4.816620114737369,1.0470064923071076,0.20115547721931812,10.102158949971617
2022-12-06 15:44:01.7590,0.13507954975686035,1.312560505724507,0.039215767241293005,2.567937480062067,-19.61360276948795,-4.69746318625391,1.2888192855640277,0.9445860358155422,10.411615835609629
2022-12-06 15:44:01.7690,-0.13377946411049793,1.1410834584228018,0.05299234245953522,4.979531846791432,-18.95574870594344,-4.670084515686749,1.5109387322003676,1.6838374382836412,10.497679189792299
2022-12-06 15:44:01.7800,-0.3157848246351395,0.9086799190099866,0.08393545190278852,6.656930953836553,-17.614087677150632,-4.758736801881198,1.7024828987464158,2.3714437837450197,10.3781440019513
2022-12-06 15:44:01.7890,-0.3947091903651886,0.6266231979241996,0.13074693127531015,7.40338282835341,-15.664415690726155,-4.9701707285980214,1.853228564353832,2.962440454539606,10.077992185484627
2022-12-06 15:44:01.7990,-0.36362605156393696,0.3091822401631219,0.18976136073253716,7.103108345964216,-13.217549155708681,-5.290293522205968,1.9548708638635255,3.4189641029416102,9.626381831410695
2022-12-06 15:44:01.8090,-0.2258023224913778,-0.02709092859504743,0.2553586495442126,5.734930583584842,-10.41595241569519,-5.684716203184355,2.0021126528682496,3.7136156244517466,9.053538771810981
2022-12-06 15:44:01.8210,0.005398486564760054,-0.36461043144306304,0.3207748488265325,3.377427195886509,-7.424623579075303,-6.1035526474252295,1.9933348358926046,3.831443830517568,8.387814125821079
2022-12-06 15:44:01.8280,0.30766752053510665,-0.6863808358218747,0.3791327258143758,0.20415690825980734,-4.416871039335518,-6.489504723369244,1.9306564673459683,3.770688048565278,7.653208597244113
2022-12-06 15:44:01.8400,0.6519030080517614,-0.9777485565695035,0.42446829527677504,-3.531223452191578,-1.5570380746545607,-6.78734696480079,1.8193301067321794,3.5424401800501584,6.867725807902537
2022-12-06 15:44:01.8500,1.0052373845946525,-1.228005075792708,0.4525577284887949,-7.519170878424932,1.0172025730464611,-6.952759642651378,1.6665831327692269,3.1692824544401934,6.042921950493776
2022-12-06 15:44:01.8600,1.3347169277125739,-1.4315298228445752,0.46140667576591204,-11.42636056754025,3.2101144978519507,-6.958870445376849,1.4801510752684945,2.682891686646327,5.184865098039166
2022-12-06 15:44:01.8700,1.6112188744011848,-1.5881173672802276,0.4513127086783252,-14.93301142387889,4.977405582415163,-6.799383353303998,1.2668730668876396,2.120703293195651,4.296397537980098
2022-12-06 15:44:01.8800,1.812954701197311,-1.702204242393932,0.42445590257444843,-17.77057864370996,6.326477954446468,-6.487551707603051,1.0318395597683319,1.5220437500748014,3.3802119269847757
2022-12-06 15:44:01.8900,1.9277850383520008,-1.7810262844788889,0.38407980033461564,-19.752825439069998,7.305427761516285,-6.050758150611649,0.7785186397405996,0.9244703171574062,2.4419307586285814
2022-12-06 15:44:01.8990,1.9537324137780638,-1.8322121950123584,0.33354859779854446,-20.79285775978163,7.982744851827017,-5.521921311665999,0.5098474575693457,0.3610309993906756,1.4922575006340995
2022-12-06 15:44:01.9090,1.897620197059151,-1.8616040802598512,0.27573526965188694,-20.90157426948421,8.424083981904658,-4.9312847054290305,0.22968711843213674,-0.14129721686524654,0.5475025889054647
2022-12-06 15:44:01.9190,1.7725074622306012,-1.8719244349998259,0.21300933644706949,-20.169396801418067,8.673724493388834,-4.30279248817547,-0.056156561843494976,-0.5622415473232536,-0.3716170687401745
2022-12-06 15:44:01.9290,1.595039343700882,-1.8624465707989422,0.14760941662482457,-18.739963095670664,8.745179008579631,-3.656048075024114,-0.3397737290262799,-0.8883701301980609,-1.2423325173169597
2022-12-06 15:44:01.9400,1.3836285391820933,-1.8295116009444103,0.08187230708643772,-16.78668928209839,8.62095632925061,-3.010198583309223,-0.6117521847755949,-1.112982300853434,-2.042409471210604
2022-12-06 15:44:01.9500,1.157656258191633,-1.7677874735898065,0.017954033898037805,-14.498856595521357,8.259779970095886,-2.3846731675317754,-0.862155413800918,-1.235699132097684,-2.7522047118092643
2022-12-06 15:44:01.9590,0.9371113349832747,-1.672339732495737,-0.04284868684541171,-12.076037924192637,7.611041477778964,-1.7948031553378598,-1.0814395267944272,-1.2615647356982234,-3.355899064389315
2022-12-06 15:44:01.9700,0.7417790919343635,-1.5414298336512369,-0.10065488351892535,-9.723378444236136,6.6372703062843925,-1.2451515686329286,-1.2609941919033254,-1.1996443732274422,-3.8420163039297335
2022-12-06 15:44:01.9790,0.5894591220495723,-1.3793110310454433,-0.1568364483531486,-7.639726523643038,5.341993637732481,-0.7264135397042204,-1.3933867105573832,-1.0615852185854884,-4.203489787685083
2022-12-06 15:44:01.9890,0.49344525665169486,-1.1976295134315642,-0.21294898596991282,-5.996190650285124,3.7930373723595125,-0.22076481994662728,-1.4727858880374503,-0.8609869196277484,-4.437548756305023
2022-12-06 15:44:01.9990,0.46010998164368155,-1.0142581930501675,-0.26934062234635076,-4.910116196135915,2.127073471973928,0.28517987682339674,-1.4958451144049427,-0.61388598217168,-4.54567295347614
2022-12-06 15:44:02.0090,0.48759566721446723,-0.8497460852428284,-0.3244952698072197,-4.423975889161691,0.5280471504274383,0.7880746834494977,-1.46262258890183,-0.3392687086416308,-4.53373792038735
2022-12-06 15:44:02.0190,0.5662761792777591,-0.7229427765422429,-0.3756082186967738,-4.498362647145058,-0.8126728236345633,1.2658930494813612,-1.3768278589570804,-0.05797702919290541,-4.41218556416901
2022-12-06 15:44:02.0290,0.6808887068697564,-0.6475151120266975,-0.41973609927516325,-5.023111491912796,-1.7367644680155443,1.6871300250742711,-1.245195947905758,0.2102978657427869,-4.195801251717152
2022-12-06 15:44:02.0390,0.8134559782920793,-0.6302157986555016,-0.45453171026630074,-5.842339042756816,-2.145620802551341,2.02215021669079,-1.0763957959762696,0.45047181962698574,-3.902789669035786
2022-12-06 15:44:02.0570,0.9459511570762426,-0.6708914189492113,-0.4783570827090995,-6.783245908749855,-2.0084398813350792,2.249100557958416,-0.8799499096750386,0.654246097514136,-3.5533003519504613
2022-12-06 15:44:02.0580,1.0621740690384696,-0.76375517274225,-0.4902111278617296,-7.679725387049053,-1.3546096925654296,2.3551675463354904,-0.6653907861404496,0.8204110118418735,-3.1679051711892865
2022-12-06 15:44:02.0680,1.14886934699736,-0.8992709457567442,-0.48974082809891867,-8.387765790724314,-0.25706471759367716,2.3367950860234368,-0.44171573842367334,0.9537235362215237,-2.766463256921848
2022-12-06 15:44:02.0810,1.1962771529035239,-1.0659847636579605,-0.4772581109996699,-8.793869213370108,1.186109897637148,2.1994855887717297,-0.21714799089646666,1.0630181458481363,-2.367492178976769
2022-12-06 15:44:02.0890,1.1982525655319183,-1.251813331380076,-0.4537033643296252,-8.818329995375997,2.8663284075634636,1.9564494019701986,0.0008742994305790397,1.1590219529089856,-1.9879072584350927
2022-12-06 15:44:02.0990,1.1520846835264509,-1.444653005976204,-0.4206564894059575,-8.414822648250654,4.67283418063908,1.6269536392775825,0.20564354708897464,1.2522725821036595,-1.6429041091888943
2022-12-06 15:44:02.1090,1.058154836903508,-1.632541799091356,-0.38042446676845615,-7.5677795206511025,6.4953817343866165,1.2358133891020566,0.3911772923386022,1.3515044736373802,-1.345803914200388
2022-12-06 15:44:02.1180,0.9195071431120067,-1.8037810655955637,-0.33602407072672913,-6.28875071387691,8.224496558129612,0.813524311397508,0.5522485668743461,1.4626652768092887,-1.1078057753089363
2022-12-06 15:44:02.1290,0.7413332610641179,-1.9473539964265645,-0.2908771876716478,-4.6121021439749015,9.753168978643576,0.3948354517655949,0.684395057645877,1.5884591780847734,-0.9377186945291998
2022-12-06 15:44:02.1390,0.5303810426616885,-2.0537569985672035,-0.24826354456304978,-2.5899606950811616,10.982471713006461,0.01460945339700239,0.7839004918021676,1.728201535393822,-0.8417740605329954
2022-12-06 15:44:02.1490,0.29434057627615284,-2.116102555585837,-0.21075351508500834,-0.28662748977726266,11.831171267880189,-0.29781851788218,0.8477887213052812,1.8778239927353413,-0.8235359848026738
2022-12-06 15:44:02.1590,0.04126782189391532,-2.1311692811067857,-0.17983570140842445,2.2269714747200364,12.247042456240576,-0.5234960138314619,0.8738819537430955,2.029989946295984,-0.8838419606399666
2022-12-06 15:44:02.1690,-0.22091333435418603,-2.100053156537108,-0.15583536158440886,4.8782973262439,12.216342814199454,-0.6562401146376503,0.8609617457944096,2.174398656346261,-1.0207111717483297
2022-12-06 15:44:02.1800,-0.4847931907030402,-2.028215414010164,-0.13809767978737705,7.597326900823999,11.768361374133105,-0.7021290153709142,0.8090363309242292,2.298407253028806,-1.229220953382155
2022-12-06 15:44:02.1890,-0.7436964548409513,-1.9249307341185682,-0.12533989948207755,10.319409059900968,10.973751586193822,-0.6766872267565299,0.7196633654041504,2.3880369647825312,-1.5013981813694148
2022-12-06 15:44:02.1990,-0.9917070465788179,-1.802293891732915,-0.1160500821577901,12.986419794985903,9.937340005770414,-0.6008328677603246,0.5962131265315802,2.429311432973807,-1.8261916081601832
2022-12-06 15:44:02.2110,-1.2235070950616838,-1.673982221195058,-0.10880553775860455,15.546032500734446,8.787235085617267,-0.49682538609798355,0.44391626801810874,2.409791849363247,-2.1896089964680105
2022-12-06 15:44:02.2210,-1.4340848918984743,-1.553910760387449,-0.10241884104100335,17.949392536459516,7.662037547927062,-0.38539700733930965,0.2695874036380729,2.320136590284621,-2.5751065152664347
2022-12-06 15:44:02.2290,-1.618387841761569,-1.4548392033107025,-0.09591166930856208,20.14785482666012,6.697194794625443,-0.2846950943713196,0.08107672366103447,2.155498330008881,-2.9642837532622424
2022-12-06 15:44:02.2390,-1.7710097371908895,-1.3870009303260789,-0.0884222149471007,22.08958946339334,6.011026026239752,-0.21061433153860185,-0.11333008064248064,1.9165994928212429,-3.3378820284477393
2022-12-06 15:44:02.2490,-1.8860256357972411,-1.3569272993567203,-0.07917246647789401,23.717026319031074,5.691478930491823,-0.1772580924437229,-0.3053472708928839,1.61041046342207,-3.6770160696573955
2022-12-06 15:44:02.2610,-1.9570872266785724,-1.3666971660373033,-0.06751223029793407,24.96630959228087,5.785696695559852,-0.19656844771721502,-0.4869556662378983,1.2503976563488597,-3.9644573329474535
2022-12-06 15:44:02.2710,-1.9778251223857464,-1.4137602432156036,-0.0529378794315063,25.76969054275564,6.294529371408404,-0.27749376130085135,-0.6507134754021644,0.856181181784218,-4.185653212956681
2022-12-06 15:44:02.2810,-1.9425026840988704,-1.4913343464231328,-0.0350226370046987,26.06090750324166,7.172926120573622,-0.4257957382529372,-0.7903089683478953,0.45224196065642563,-4.329156632010068
2022-12-06 15:44:02.2910,-1.846795800439698,-1.5892568272243581,-0.013344694264726493,25.782629142839333,8.335703280932766,-0.6446517838718607,-0.9013048242379877,0.06540463932452026,-4.386370071230575
2022-12-06 15:44:02.3000,-1.6885529311603313,-1.6951023795565614,0.01246043716766088,24.894527976557953,9.667178307978743,-0.934936310435494,-0.981783788838958,-0.27861346357251854,-4.350845796020503
2022-12-06 15:44:02.3090,-1.4684022092708164,-1.7953753098206073,0.042532103305528444,23.38050751066423,11.032707260504619,-1.2943766327040793,-1.0325904731980717,-0.5586451841733012,-4.21753935238982
2022-12-06 15:44:02.3190,-1.190114889574586,-1.8766472793089344,0.07664565918304041,21.25387964853823,12.290417484141566,-1.716285134154411,-1.0570684915144217,-0.7604999102701768,-3.982272755268845
2022-12-06 15:44:02.3290,-0.860696648732873,-1.926589386562691,0.11422455193231068,18.559842290964973,13.30218945239591,-2.18932563576133,-1.0604351423577278,-0.8780166224243816,-3.6414153862363383
2022-12-06 15:44:02.3390,-0.49022950819978184,-1.9348964788999115,0.15447146208315113,15.375216897635722,13.943605280115179,-2.6989238001918823,-1.0490328694481623,-0.9130847780361944,-3.191695996942476
2022-12-06 15:44:02.3490,-0.09152200003022026,-1.8941273365087894,0.19644454005500614,11.805835335647984,14.11295220404838,-3.2293021662899677,-1.0295926022949204,-0.8750525327940789,-2.6301920156158154
2022-12-06 15:44:02.3590,0.3203519776082668,-1.8004677024098494,0.23892169030168178,7.98228304936668,13.739519236997939,-3.764202976842239,-1.0084711062163743,-0.7795256882369523,-1.9547406554501532
2022-12-06 15:44:02.3690,0.7285682258291515,-1.65432640702915,0.2800993302327021,4.054830221531626,12.790993264752045,-4.28529677064137,-0.9907860018731249,-0.6462755578020044,-1.1650416549115672
2022-12-06 15:44:02.3800,1.1151488403113017,-1.4605585098060117,0.3173811734950367,0.18792674914684865,11.278617525950846,-4.769565454158035,-0.9794999268049726,-0.49616450477618423,-0.26448058895336324
2022-12-06 15:44:02.3880,1.461745750385999,-1.2281173877455742,0.3475038167648807,-3.446270657290503,9.257941237586008,-5.188357148346881,-0.9746340067785916,-0.3474893112438708,0.7376707824211409
2022-12-06 15:44:02.3980,1.7507060037875612,-0.9691198555050956,0.36703206440555075,-6.676379588945084,6.8237263808890525,-5.5098260060031325,-0.9728081388302452,-0.21254826378977734,1.82428840481991
2022-12-06 15:44:02.4090,1.9664267255345274,-0.6975384652421912,0.37305890260550156,-9.342914144426338,4.09970866576698,-5.7042238499027835,-0.9672693150534029,-0.09532277923006718,2.9693011536579474
2022-12-06 15:44:02.4190,2.0969175532714326,-0.4278464801302479,0.3639002806170695,-11.311794630120254,1.2258390884000923,-5.750165332475066,-0.9485358041564705,0.009063919053787976,4.137927763059624
2022-12-06 15:44:02.4290,2.1354215616483048,-0.1738888399114375,0.3396180205510085,-12.48925674636777,-1.6539334726665325,-5.640083568043031,-0.9056943949775803,0.11288551261920873,5.288434026832554
2022-12-06 15:44:02.4400,2.081865600529745,0.0518905341998255,0.30224103121660073,-12.836557175323213,-4.40124276342891,-5.383581920991237,-0.82819435322321,0.23263661438182032,6.3752841764264225
2022-12-06 15:44:02.4490,1.9438057154123134,0.23888403892833182,0.25561156894390785,-12.381979812551696,-6.889638670108161,-5.0077178338277735,-0.7077861937612173,0.384832791103758,7.353229999825106
2022-12-06 15:44:02.4590,1.7364891893352674,0.37854485512074804,0.20490621681735752,-11.226688144804799,-9.008374497918025,-4.553987727063146,-0.5402103724098489,0.5816310877424039,8.181629931914333
2022-12-06 15:44:02.4690,1.4817962033773395,0.46455919268620766,0.15599267504125344,-9.541082987317271,-10.665096784377175,-4.073021821316374,-0.3263636502166029,0.8270599652714558,8.828244764880875
2022-12-06 15:44:02.4790,1.2061404159325873,0.4930676375155792,0.11476728865108922,-7.550432337551462,-11.788785072388213,-3.618633076031604,-0.07281689329154255,1.1145155042105916,9.271936827867426
2022-12-06 15:44:02.4890,0.9377009051153833,0.4629384401316668,0.08650530453096127,-5.51177676254608,-12.333430884476234,-3.242163955026507,0.2083811356419893,1.4260375368704086,9.503982364289874
2022-12-06 15:44:02.4990,0.7034432042821167,0.3760349197765236,0.07518861881311782,-3.686290184301107,-12.28202801514862,-2.986941477840779,0.5006620341258001,1.7336958290529074,9.527947450664922
2022-12-06 15:44:02.5100,0.5262826484957187,0.23741518705975362,0.08281738792943555,-2.3112359508361546,-11.650105748730477,-2.8823828633161908,0.7846332830750916,2.003119962996263,9.358227322437902
2022-12-06 15:44:02.5190,0.4226052501439819,0.05540475848731947,0.10880612719110107,-1.5742832660650796,-10.488130032206808,-2.9379979527251785,1.040337571462337,2.198756621376638,9.017452507051942
2022-12-06 15:44:02.5300,0.40031584958220606,-0.1585487902169574,0.1496503153299338,-1.591832536730691,-8.882057708956852,-3.1385105262343407,1.2497472861029804,2.2899327190736853,8.53308386295289
2022-12-06 15:44:02.5390,0.4576484391335232,-0.3903758384183623,0.1990970189718579,-2.3930199049606373,-6.9509600166340935,-3.4421181589647527,1.3990797137611324,2.256476302880059,7.933663853092998
2022-12-06 15:44:02.5490,0.5830590098913511,-0.6243805196631426,0.24900921186447295,-3.911987092346371,-4.840306116259658,-3.7841945601955422,1.4805114208528698,2.092672027253312,7.245302678961162
2022-12-06 15:44:02.5610,0.7564899762309896,-0.8447963608318089,0.2909218670128401,-5.991625431542745,-2.7097578191751874,-4.087859283673813,1.4929050643047217,1.8086560325176944,6.488969609072075
2022-12-06 15:44:02.5690,0.9520947133932025,-1.0378068095242976,0.3179815565403162,-8.40112146373767,-0.7154091429152072,-4.280474347232996,1.4412657494914787,1.4288356945668486,5.679042379446601
2022-12-06 15:44:02.5790,1.1422158047774098,-1.1936886185849285,0.32667711832952356,-10.867256162471923,1.011735677099104,-4.31202788417538,1.3349365730312663,0.9875332188694917,4.823457608960217
2022-12-06 15:44:02.5900,1.3020609352706844,-1.3084058437161148,0.3176918618055743,-13.116389443093556,2.386459638536029,-4.1691110979786155,1.18505132901168,0.5228444976219182,3.9256763970743154
2022-12-06 15:44:02.5990,1.4140745377004391,-1.3838168944578864,0.2954838301712447,-14.920310836117705,3.3815314818504456,-3.8785652344781307,1.0022111823197035,0.07039203453692226,2.988262552385296
2022-12-06 15:44:02.6090,1.4706719425949273,-1.426110891041106,0.26676831015382385,-16.134675679023537,4.023956674703525,-3.498788487765263,0.7952807345725482,-0.34137143793253033,2.017111141608223
2022-12-06 15:44:02.6190,1.4743145786162704,-1.443089268840668,0.23858236119262896,-16.71717596816278,4.374874060530636,-3.102478263901576,0.5714801596679535,-0.693509331249308,1.0247852813872727
2022-12-06 15:44:02.6290,1.4349849285340517,-1.4415721741516299,0.21667301969188565,-16.718678266703222,4.50244526770876,-2.7582072540224085,0.33713555859613664,-0.9767735714761977,0.03162215068007832
2022-12-06 15:44:02.6390,1.3662571059949367,-1.4259100655871404,0.20455693039512868,-16.252340714397867,4.460230748292209,-2.5169625703582748,0.09825799236235858,-1.190205943306624,-0.935777080052253
2022-12-06 15:44:02.6490,1.2815644864958684,-1.3977529561015098,0.20313188119769623,-15.454727756688706,4.277713041918053,-2.4051804232922014,-0.13940435736306075,-1.338737602469898,-1.847969817374753
2022-12-06 15:44:02.6590,1.1918593830856963,-1.3566670391227098,0.21056372659935835,-14.453697852312638,3.9617620039027237,-2.4221238767177726,-0.37063376545040083,-1.4302326281556546,-2.676696317035327
2022-12-06 15:44:02.6690,1.1050402001266413,-1.3011416399321256,0.2223555493491041,-13.351932842747278,3.5043299436227566,-2.539340514895351,-0.5908927667660758,-1.47237139349555,-3.3982836156525487
2022-12-06 15:44:02.6800,1.0266950095532759,-1.2297433856287658,0.23175677527573418,-12.226607869171739,2.892612589207144,-2.7023208505623257,-0.7960059140230461,-1.4698684370269481,-3.995776746194158
2022-12-06 15:44:02.6910,0.9612285114707066,-1.14234352154505,0.23073914960347297,-11.138553709987846,2.120148150230016,-2.8364107832167695,-0.9813011421726617,-1.422753390610931,-4.459772417434466
2022-12-06 15:44:02.6990,0.9125322184473331,-1.0413183722790054,0.21161211876254013,-10.141550724333113,1.1983599380972632,-2.858815108551561,-1.1405554478942515,-1.3265272121675677,-4.788270691208516
2022-12-06 15:44:02.7090,0.8838943135579241,-0.9324215816213894,0.16904370660294812,-9.285299053730906,0.16701897802841248,-2.696380320364715,-1.265492847031199,-1.1746121107724026,-4.985853855736434
2022-12-06 15:44:02.7200,0.8773868277185068,-0.8248758196938973,0.10188023068759985,-8.61140018627424,-0.9000622464283399,-2.3055263317079993,-1.3465415888401857,-0.9626325935544564,-5.062375772617686
2022-12-06 15:44:02.7300,0.8932066304130737,-0.7304215196113123,0.013935834482418039,-8.146016410087107,-1.8982816252917967,-1.6872845320029353,-1.3747913353075591,-0.6930356209380057,-5.031338001299507
2022-12-06 15:44:02.7390,0.9294054909035091,-0.6615421510530971,-0.08676588259219,-7.894030551770404,-2.7053765704043107,-0.8897765266272512,-1.3441688682320376,-0.37798790119193837,-4.908212525862629
2022-12-06 15:44:02.7500,0.982205619545751,-0.629429750772295,-0.18993909996775726,-7.838321331176405,-3.200614914954156,0.004089087646196718,-1.252755308207764,-0.03899529751942877,-4.708955699267467
2022-12-06 15:44:02.7590,1.0467030241028006,-0.6422130919509366,-0.2851364748331915,-7.944709082777682,-3.284275088789174,0.8970016329597597,-1.1029503079999832,0.29677309262811913,-4.448834145521833
2022-12-06 15:44:02.7680,1.1174517942630222,-0.7037541901090523,-0.3632285012096303,-8.169130108729417,-2.8930917286609303,1.6955318855941188,-0.900890193030998,0.6019041484105296,-4.14162737202112
2022-12-06 15:44:02.7790,1.1885277224929984,-0.8131624141926812,-0.41724652214257296,-8.461829061743703,-2.0093749225843673,2.321619781993882,-0.6555876051092441,0.8538304216622724,-3.7993133467579523
2022-12-06 15:44:02.7900,1.253130384191839,-0.965047067352873,-0.4428639755282994,-8.766070125816965,-0.6627996591785855,2.719064040537028,-0.378057176652493,1.0381636169741622,-3.4323322299893544
2022-12-06 15:44:02.7990,1.303166765232101,-1.1503622701233098,-0.4385760854127239,-9.0136399023415,1.0747563301959584,2.857142598773081,-0.08058384029792859,1.1499224271603476,-3.050401374200907
2022-12-06 15:44:02.8100,1.3292973594773596,-1.3575526116154757,-0.40557412533754683,-9.122012178990364,3.099280667992052,2.73125423633336,0.22382817219440374,1.1930607078305857,-2.6636587333567667
2022-12-06 15:44:02.8200,1.321697833565203,-1.5736702363147042,-0.34747767061966395,-8.997248616649756,5.286442012844758,2.3610772246924108,0.5219329713391342,1.1788881777591729,-2.2836845075907783
2022-12-06 15:44:02.8320,1.2714663912524233,-1.7852479445489065,-0.2700523545506861,-8.543981583667088,7.502148438394539,1.7880769170354698,0.8007549517758044,1.123822243701314,-1.9238596350408639
2022-12-06 15:44:02.8390,1.1723114254218057,-1.978948389434423,-0.18080291175385427,-7.680666178088002,9.610486277763016,1.0727340121160196,1.0481398132507973,1.046756631243523,-1.5987627469186814
2022-12-06 15:44:02.8500,1.022000869518607,-2.142218965393753,-0.08828032515179762,-6.355811187476412,11.480101968902506,0.2898462763982561,1.2533087071485973,0.9663170749326413,-1.3227722376269173
2022-12-06 15:44:02.8600,0.8231110172740765,-2.2641928245671163,-0.001117879299127138,-4.560138323098277,12.99156894545269,-0.47917219986885795,1.407386269871287,0.8983155285339108,-1.1083630512971439
2022-12-06 15:44:02.8710,0.5828290475744279,-2.3368612495425323,0.07303836129296015,-2.330835729640739,14.047499705482299,-1.156181121481241,1.5038559982974722,0.8536957526655687,-0.9645999308224761
2022-12-06 15:44:02.8800,0.31182986225224046,-2.3562471480056884,0.12848629007861076,0.2535479168451058,14.584546084220348,-1.6764996813912556,1.5388904027946475,0.8371945437959405,-0.8961747027347121
2022-12-06 15:44:02.8900,0.02249168285835269,-2.323145891620099,0.16209911565468765,3.0864786637725503,14.583796313956721,-1.9972002916111404,1.511535922793964,0.8468915778768202,-0.9031601643989412
2022-12-06 15:44:02.9000,-0.2731012936014533,-2.2431057233415044,0.17349749947216495,6.051796204447944,14.075402119143261,-2.10161493787081,1.4237641694148833,0.8747437912384275,-0.9814547062303791
2022-12-06 15:44:02.9100,-0.5648531043751945,-2.1256294942438005,0.1647611898156758,9.042317517638132,13.135245785207378,-1.9991794981410724,1.2803982888654644,0.9080275479946398,-1.1236865505799
2022-12-06 15:44:02.9200,-0.845624904701221,-1.9828666860769588,0.1398079197619366,11.973835578075233,11.87466588373222,-1.721098344130903,1.0888898683164963,0.9314013114378332,-1.3202450051972368
2022-12-06 15:44:02.9290,-1.1112774542737798,-1.828167944040577,0.10364025905124485,14.791112022714396,10.426469677332122,-1.3134499074711328,0.8589017316156795,0.9291680586703797,-1.5601746157246783
2022-12-06 15:44:02.9400,-1.3598420318453621,-1.674802366050581,0.061631258093105795,17.464852867099612,8.930731509243374,-0.8297508524785737,0.6017040010708621,0.8873456355271923,-1.8318446385280946
2022-12-06 15:44:02.9490,-1.5900809437223835,-1.534970589903468,0.01891420082108618,19.981050621262565,7.522713041036637,-0.32435772030378635,0.3294937724069279,0.7953719908113989,-2.123448011271178
2022-12-06 15:44:02.9590,-1.7998112101637471,-1.4190640989806815,-0.02012369378461829,22.325767382822615,6.323441665024832,0.15294397009616134,0.05477122238406466,0.6475372673397781,-2.4233595502128114
Time,-1.9844105355054682,-1.3350312479002298,-0.052212368528439364,24.469211638181587,5.431961900421668,0.5611404721599095,-0.21021352765815535,0.44425694154660056,-2.7202320472407697
2022-12-06 15:44:02.9780,-2.135952877599202,-1.28779518130305,-0.07537331571926521,26.35325642513113,4.918251864026977,0.870667935794683,-0.4540300606394377,0.19298086620993374,-3.0026849652191037
2022-12-06 15:44:02.9890,-2.24337568710483,-1.2788400783816323,-0.08889473872558198,27.88660058698215,4.817392474707905,1.0644233146880255,-0.6666666288513193,-0.09180736923753534,-3.258699171419324
2022-12-06 15:44:02.9990,-2.2938511865149738,-1.3061325098634717,-0.0931691237594592,28.950799885634147,5.126810257671999,1.1375344091614408,-0.8400270541949245,-0.38996838991711924,-3.4751541435896693
2022-12-06 15:44:03.0090,-2.275133689117076,-1.3644086148929144,-0.08943062269529826,29.417592449552227,5.807612968761045,1.0962225479809158,-0.9681950049506605,-0.6783677851809198,-3.637971049536643
2022-12-06 15:44:03.0200,-2.1782322993874894,-1.4456978030408976,-0.07939237414567131,29.173815497162835,6.789187005422342,0.9555146860395479,-1.0474936429513666,-0.9340819868742188,-3.732968523993276
2022-12-06 15:44:03.0280,-1.9995339840221844,-1.5399324006596087,-0.06482614044745104,28.146456826151997,7.975341591485781,0.7356731062291193,-1.076508004952175,-1.1372126766930166,-3.7470735439396883
2022-12-06 15:44:03.0400,-1.7417031254685873,-1.635579249972729,-0.047194542826027565,26.319467408741854,9.250825951387144,0.45805349822705343,-1.0562162450788026,-1.2727665298975506,-3.6693324188699066
2022-12-06 15:44:03.0490,-1.4132733800487736,-1.720307071421073,-0.027452022082415206,23.73757780204746,10.487984127456059,0.14166059921505383,-0.9902107752999073,-1.3316364958137628,-3.491342936042768
2022-12-06 15:44:03.0580,-1.0273994689077988,-1.7817449114655928,-0.006073227612186421,20.498570473562683,11.553881506658646,-0.1985403826618747,-0.8848224964414557,-1.3109965923859153,-3.2070533892690927
2022-12-06 15:44:03.0690,-0.6003765891379509,-1.8084080281191603,0.01671461222247523,16.73957978958614,12.318556123125724,-0.5511975122877353,-0.7489257729020321,-1.2143421644569028,-2.8121332221433755
2022-12-06 15:44:03.0810,-0.15033792441431862,-1.7908284682028603,0.04059027672948451,12.622859617436458,12.665097644213747,-0.9064802508879948,-0.5933083927521451,-1.0512193736707565,-2.303315637839767
2022-12-06 15:44:03.0890,0.3037155972426313,-1.722796396780185,0.06481590665673202,8.324067126968812,12.501538256988614,-1.2533519059106915,-0.42965108693275195,-0.8365329983637568,-1.6782517486606143
2022-12-06 15:44:03.1000,0.7425965013300891,-1.602454953860967,0.08805469791081362,4.023824359824811,11.773042966878199,-1.5774018366788667,-0.2692932281299914,-0.5892247006674812,-0.9363408034293733
2022-12-06 15:44:03.1100,1.147508072296526,-1.4329127200630374,0.10840713196299277,-0.09838156097872376,10.47149509992194,-1.8602397283025247,-0.12201134382179944,-0.3301762060262138,-0.08059794729368669
2022-12-06 15:44:03.1190,1.5007469584810031,-1.2221246377945854,0.1236556824305042,-3.869999905650318,8.639376333449333,-2.080852446478234,0.005014240089371326,-0.0794964286322749,0.8799281347336614
2022-12-06 15:44:03.1290,1.7866605809984113,-0.9820166654249846,0.1316275900287964,-7.132885525827524,6.366253113571827,-2.218408091891987,0.10795126501010484,0.14625442894624327,1.9280267127085504
2022-12-06 15:44:03.1390,1.992824775529537,-0.7270631384094812,0.13059141412917297,-9.753094969018893,3.778493776693161,-2.255564755674774,0.1867080944423813,0.33618326816219146,3.037303973072593
2022-12-06 15:44:03.1500,2.1113047534602956,-0.4726516965957298,0.11964564347286909,-11.63225082945962,1.0247499306593766,-2.1817727976676826,0.24486135339760406,0.48603819136171345,4.172759538594535
2022-12-06 15:44:03.1600,2.1398146068959902,-0.2335701838705583,0.09903023373311173,-12.719005758397346,-1.7395255255505457,-1.9962768756443812,0.2890419734054804,0.5979942098666404,5.292981516336736
2022-12-06 15:44:03.1690,2.082522926627633,-0.02286098891415829,0.07024515507817644,-13.018645292263457,-4.365601800915298,-1.7099685404933875,0.3278123958260755,0.6794863922421872,6.353553575993425
2022-12-06 15:44:03.1790,1.9502049342231091,0.14885581289749175,0.03590813803248333,-12.59819564811666,-6.7212016049824514,-1.345059073714918,0.37018990213631925,0.7413536289109398,7.311014066820911
2022-12-06 15:44:03.1890,1.7595271054640942,0.27364661017742714,-0.00060598170229243,-11.584330504379798,-8.696081099596718,-0.932392083847783,0.42403567263829606,0.7955466966253061,8.126664676009339
2022-12-06 15:44:03.1990,1.531485848639578,0.3462794474476146,-0.03564004933889312,-10.152796478571192,-10.204454632024106,-0.5072023893592659,0.49453965667970684,0.8527276887138499,8.769662784757697
2022-12-06 15:44:03.2090,1.289278896959728,0.364167227220974,-0.0657554402507686,-8.510629124658488,-11.185925065556917,-0.10437959057468776,0.5830469108806695,0.9201542755492754,9.219066909318668
2022-12-06 15:44:03.2190,1.056004625030269,0.32735228085386586,-0.08820658329913088,-6.874546335120532,-11.606336939556618,0.24606758969012563,0.6864925288992297,1.0002159030093252,9.46472907541666
2022-12-06 15:44:03.2290,0.8525214539706742,0.23856569845886333,-0.10133121947603459,-5.449311350528212,-11.459209283208654,0.5229330972918551,0.7976529117858702,1.0898748324767433,9.50707449801095
2022-12-06 15:44:03.2390,0.695653273582049,0.10333168524802937,-0.10476556559211245,-4.408754173894913,-10.767692859774384,0.7165270707545769,0.9062350119835604,1.1810764826147828,9.35589110196585
2022-12-06 15:44:03.2500,0.5968100750001608,-0.06997694998105772,-0.09940167301870997,-3.880682277276673,-9.586440100404952,0.8293479460888942,1.0005913327196891,1.2619565762834395,9.028316082413493
2022-12-06 15:44:03.2590,0.5610569305250437,-0.2703030222877862,-0.08708011447288343,-3.9360229708813037,-8.002125726701674,0.8742043851332025,1.0696807174430736,1.3185060969387896,8.54628117578447
2022-12-06 15:44:03.2690,0.5866989169238372,-0.484500941363735,-0.07010095503237991,-4.582482675350965,-6.130684588593095,0.8701235515580391,1.1048315489890606,1.3363844429912284,7.9337607239802495
2022-12-06 15:44:03.2790,0.6655017876835823,-0.6985018168292477,-0.05067399702638581,-5.763503287763519,-4.109309952133449,0.8370787346057842,1.1009010174243645,1.3027258472986651,7.21422910773567
2022-12-06 15:44:03.2900,0.7836707872746631,-0.8989721107847422,-0.030417307175274504,-7.363727705100553,-2.0825563571900028,0.7906778454754321,1.0565871792349344,1.207843593756157,6.4087397313457455
2022-12-06 15:44:03.2990,0.9236196788168055,-1.0751249827456009,-0.009998213493454276,-9.221936434555769,-0.18434173728300163,0.737755607730232,0.9739267467720162,1.0466250261760148,5.534963424845622
2022-12-06 15:44:03.3100,1.0663796274113244,-1.2201768236945383,0.010999007291462746,-11.151205446590957,1.4799374301317916,0.6737175072495382,0.8572621297767113,0.8193056893042151,4.607345532219889
2022-12-06 15:44:03.3210,1.1942673550463465,-1.3319894985045213,0.03393121882976047,-12.964018155924984,2.8460435687891286,0.5823537263396869,0.7120401724082192,0.5314159809342112,3.638242272602865
2022-12-06 15:44:03.3300,1.2932528182341196,-1.412696813513666,0.06069284207017585,-14.497851746497862,3.894490925527061,0.4384062725353968,0.5437290095496397,0.19298228858538768,2.639568077363377
2022-12-06 15:44:03.3400,1.35448077268001,-1.4674443922532403,0.09311750430843999,-15.635527432628203,4.644312600761357,0.2126140558279234,0.3570238810183492,-0.18268133818577312,1.6243288473116668
2022-12-06 15:44:03.3490,1.3746848444361695,-1.5025996412283318,0.13229843080447992,-16.315706406667772,5.139262620435996,-0.12152450071677481,0.15541734250101555,-0.5801805057239343,0.6075510849084425
2022-12-06 15:44:03.3590,1.3556624530505064,-1.5238406373355684,0.17796459828192288,-16.532474682574883,5.4302935331744955,-0.5804590196492054,-0.058851788043974645,-0.9829082486994563,-0.3935566407020697
2022-12-06 15:44:03.3700,1.3032750292852322,-1.5344867476309065,0.22801562735867834,-16.32702006367359,5.5581541187120145,-1.1640220479743322,-0.28446983445808405,-1.3733946178760297,-1.3600594850128809
2022-12-06 15:44:03.3800,1.226418076597313,-1.534399092228412,0.2782722288348573,-15.776263554457229,5.539450500808679,-1.850410026129149,-0.5203430386273267,-1.7331992870479873,-2.2720535418778476
2022-12-06 15:44:03.3900,1.1361392342114658,-1.519768259663119,0.3225217326964463,-14.982068244923859,5.359309381756787,-2.593330806893525,-0.7645750925245121,-2.042677346546618,-3.109439395515122
2022-12-06 15:44:03.3990,1.0447862062474134,-1.4840491676954326,0.3529851044587109,-14.061726481000179,4.973602584878017,-3.3224321974162327,-1.0132642114446626,-2.281120339717337,-3.8526452357151535
2022-12-06 15:44:03.4090,0.9649420976555428,-1.4201224710948834,0.3612990432999085,-13.138015924628178,4.322746861361281,-3.948423486980833,-1.2592949837483693,-2.427730287317443,-4.483500994253839
2022-12-06 15:44:03.4190,0.9080378113921803,-1.3234094818681212,0.3400142569234473,-12.326863714830662,3.35671348221464,-4.37372792379475,-1.4914115047937648,-2.4636501443340784,-4.986503672012406
2022-12-06 15:44:03.4280,0.8828072753365324,-1.1951548616816283,0.2845051264099023,-11.722731656279157,2.066723480155604,-4.508638899303701,-1.6941699944818505,-2.375040213617014,-5.350399000964634
2022-12-06 15:44:03.4400,0.8939409623111725,-1.0446191396140974,0.19494659386447422,-11.384507017051494,0.5137949697107653,-4.291726460569474,-1.8495053605648726,-2.1569358551245568,-5.569631260090789
2022-12-06 15:44:03.4500,0.9412928835713176,-0.8889676277329599,0.07757393503930103,-11.32589826905952,-1.1590550857327335,-3.7101285667785864,-1.9399502730741014,-1.8169803673885363,-5.645180540588245
2022-12-06 15:44:03.4590,1.0198984660972408,-0.750525387225366,-0.055756195685901865,-11.51388007503913,-2.740635392352367,-2.811116723488767,-1.9523192692160782,-1.3772729484398412,-5.584586857978114
2022-12-06 15:44:03.4700,1.120900522340257,-0.6522847391876933,-0.1899600507954,-11.877255108261163,-3.9899618698664256,-1.6967084450886454,-1.880247320958747,-0.8726593353688996,-5.401195023334963
2022-12-06 15:44:03.4800,1.2331125501033768,-0.6131729171841303,-0.3099988045419459,-12.32370507726125,-4.686275810225629,-0.5018874681765157,-1.7248430539885278,-0.3454381767548735,-5.11274969040839
2022-12-06 15:44:03.4890,1.344490101842798,-0.6443968943542382,-0.4034601810826271,-12.757761049353078,-4.67411546295612,0.6330171763095078,-1.4938196084922035,0.1615925397987118,-4.739661920933556
2022-12-06 15:44:03.4990,1.4428338227279165,-0.7476355737398411,-0.4617964747144179,-13.090101445605693,-3.8913842374766587,1.5846563413706105,-1.19986325772756,0.6113414020053992,-4.303514848703456
2022-12-06 15:44:03.5100,1.515805218398308,-0.9152511303088581,-0.48061464012002075,-13.235534153253981,-2.376078516527812,2.2601103305595474,-0.8588716298971104,0.9765580218015767,-3.826286158074417
2022-12-06 15:44:03.5190,1.5510154515636547,-1.1321558889407448,-0.45952653211833117,-13.10666618266211,-0.25389782886078377,2.6035195711782393,-0.48846427960915706,1.2418183371723202,-3.330277100663399
2022-12-06 15:44:03.5290,1.5368560325209233,-1.3786362877448308,-0.40172340767702774,-12.612855416127994,2.287252746878389,2.5978563387227087,-0.10690471841462541,1.4037143770838159,-2.83825410559076
2022-12-06 15:44:03.5390,1.4641361351292952,-1.6333362905919573,-0.3133668134615841,-11.669080747906648,5.0283119957170035,2.2626334658408433,0.267674558296182,1.4694939008602084,-2.373154630027165
2022-12-06 15:44:03.5500,1.328048667751936,-1.8757288464516977,-0.2029506320360544,-10.212806543696018,7.748151270399507,1.649079313405171,0.6179274653322097,1.4544204389229693,-1.9569299872056993
2022-12-06 15:44:03.5600,1.1297407773469998,-2.087773975765418,-0.0806386389960066,-8.222637972510825,10.245343771441009,0.8343054855958966,0.9279300279635482,1.3784139542039677,-1.6086059407983588
2022-12-06 15:44:03.5700,0.8768353740812131,-2.2549304308839133,0.04259083885710609,-5.7313277410462256,12.35154069166938,-0.08602580246878574,1.183817354110893,1.2627254843808748,-1.3421840588553364
2022-12-06 15:44:03.5790,0.5826002583034122,-2.366936085644867,0.15605948339673825,-2.827495621050974,13.939541748595413,-1.0078826085126233,1.3744097147412617,1.1272409351297232,-1.165212132381776
2022-12-06 15:44:03.5900,0.26392213290039784,-2.4186021258191275,0.25059743862173484,0.35549857552336217,14.930133559918378,-1.8314485791961368,1.4917690413515194,0.9886204038749936,-1.0785722689202548
2022-12-06 15:44:03.5980,-0.061405711019105226,-2.4104252889791953,0.31957889394195976,3.6607630188815916,15.298756753556225,-2.473721202552116,1.5315874416434239,0.8591834959199995,-1.0774934295501064
2022-12-06 15:44:03.6110,-0.3774189296813988,-2.348530618109213,0.3595605720905484,6.933620109189287,15.078744452460315,-2.878402041657778,1.4933379820941586,0.746433685077112,-1.1533244212268345
2022-12-06 15:44:03.6200,-0.6721018224535995,-2.2436287457935915,0.37040264100230696,10.045445060669435,14.356510802492796,-3.021139323716845,1.3801960414801053,0.6532154661274723,-1.2954025385452586
2022-12-06 15:44:03.6300,-0.93844358355952,-2.1091744485244908,0.35488002156015525,12.90991418250796,13.257313196133342,-2.909356078544894,1.1987863635419453,0.5784423864430343,-1.4924613561472588
2022-12-06 15:44:03.6400,-1.1743032049626856,-1.9593115096656308,0.3179196399996901,15.488331206430521,11.925225625195266,-2.5772207474745916,0.9588093469196132,0.5181237886633271,-1.7333561618184286
2022-12-06 15:44:03.6500,-1.3812769431731566,-1.8071984281622486,0.2656680415028948,17.78397336470441,10.503545814564147,-2.077454314712504,0.6726083352029348,0.46633576921536596,-2.0072680655879367
2022-12-06 15:44:03.6600,-1.5629474832598478,-1.6639975288331528,0.20456675401304705,19.82817232617393,9.120529778273964,-1.4720154157294105,0.35474326589056,0.4160099769287698,-2.30374575504342
2022-12-06 15:44:03.6680,-1.7229149783349984,-1.538439453447587,0.1405484400771392,21.66202541568439,7.8817497552985545,-0.823204679009698,0.02155329487592399,0.35975707307570404,-2.6128104596328403
2022-12-06 15:44:03.6800,-1.862967535943221,-1.4366888129478996,0.07844302087367329,23.317468783808383,6.867206058410034,-0.18618761257319552,-0.30944146716387716,0.2910367307630755,-2.9250181968361035
2022-12-06 15:44:03.6900,-1.9817337116527993,-1.3623121337713735,0.021681089279076513,24.801081561105768,6.130491629002555,0.3961557342813447,-0.6204805906148769,0.20569688236887795,-3.2312058226813485
2022-12-06 15:44:03.7010,-2.074129888810929,-1.3163405965917245,-0.027667278100706252,26.08388696043431,5.698726467951383,0.8952746102304814,-0.8948836615432623,0.10342353212702371,-3.5218480133454393
2022-12-06 15:44:03.7100,-2.1317744721528986,-1.2975003884512908,-0.06857822883239499,27.099791413180228,5.57365819394435,1.295797372759077,-1.118554359152283,-0.011643350826389452,-3.786317600352963
2022-12-06 15:44:03.7190,-2.1442931048347007,-1.3025924374627738,-0.10062251882911966,27.75347697220829,5.734435869869875,1.5920439288941057,-1.2813284572515309,-0.13163175050952564,-4.012491118210607
2022-12-06 15:44:03.7300,-2.101186690009986,-1.326891422635978,-0.12353376910330695,27.936020139685798,6.141407712825416,1.7836085372223107,-1.3778776700072406,-0.24680182614160118,-4.186922566713934
2022-12-06 15:44:03.7400,-1.9937833172729027,-1.3644509252546841,-0.13693241328387068,27.544325734691693,6.739609535482627,1.8714665443810792,-1.4080543839471575,-0.3477163736395778,-4.295432042599551
2022-12-06 15:44:03.7500,-1.8168196940604413,-1.4083172908367738,-0.14028852583152907,26.499560184074713,7.461266657964842,1.8558086645319891,-1.3767166777272932,-0.42680598739016695,-4.323767256896451
2022-12-06 15:44:03.7580,-1.5694000356828555,-1.4507334899482167,-0.13311226982922594,24.760687459284505,8.227744961190387,1.7361859650748346,-1.2931513953277916,-0.4789188981902159,-4.258122626509539
2022-12-06 15:44:03.7700,-1.2553455490650813,-1.483410401732481,-0.11526141820148587,22.331598009430014,8.951807888534313,1.5135468066218087,-1.1702174207949523,-0.5010970470076116,-4.085548881833648
2022-12-06 15:44:03.7800,-0.8831102522101233,-1.4979238091564497,-0.08722221309016573,19.262717265404294,9.540849348344693,1.1929369396159923,-1.0232792439785388,-0.4921896701714869,-3.7944002513873483
2022-12-06 15:44:03.7900,-0.46543617232878914,-1.4862961709917801,-0.05026629200217245,15.648973368112012,9.901673447542558,0.7855910412837421,-0.8689402298983518,-0.45286100090562087,-3.374912561016262
2022-12-06 15:44:03.8000,-0.018828735654952154,-1.4417978364451831,-0.0064629969416770735,11.625538804338722,9.947375193642326,0.3097289609146544,-0.723561928969049,-0.38618474797710667,-2.819941187540601
2022-12-06 15:44:03.8100,0.437151325123447,-1.3599174631538777,0.0414131095885812,7.361812706809428,9.60641637531844,-0.20992564915748532,-0.6015852957395961,-0.298530761366512,-2.1259282741379524
2022-12-06 15:44:03.8200,0.8808273528725602,-1.2393303952871244,0.09002666836495825,3.0534369612267813,8.832969334228515,-0.7434208022213706,-0.5137707537843762,-0.20003051749762446,-1.2942454120639448
2022-12-06 15:44:03.8320,1.289637887107868,-1.0825926110342414,0.135676086801737,-1.0881452215792753,7.616423283689022,-1.2572255717536496,-0.4656480151478754,-0.10382822361577886,-0.3329669962426733
2022-12-06 15:44:03.8400,1.641701784537298,-0.8962733760998924,0.1745970667277448,-4.849096004335074,5.987192101821965,-1.7164354284688081,-0.4566063281839018,-0.02378456707337299,0.7412495188903236
2022-12-06 15:44:03.8500,1.9176891461503753,-0.690367519445146,0.20340394194493344,-8.02975186955009,4.01626873132017,-2.0880876315787367,-0.47998073168679456,0.028912411476792535,1.9019692158063808
2022-12-06 15:44:03.8610,2.102829973982527,-0.47707912979526895,0.21957294195514895,-10.463634890187931,1.8077126449077692,-2.3454518251816063,-0.5241493417755253,0.04918003813941515,3.113377898244705
2022-12-06 15:44:03.8700,2.188719546307694,-0.2693120023869368,0.2217813906169427,-12.036609332946266,-0.5141499213820481,-2.471877730839082,-0.5742772368519978,0.04036565630576855,4.332680084599272
2022-12-06 15:44:03.8800,2.1744866057832204,-0.07927741870593787,0.20998489305599521,-12.702345787134147,-2.819145919934618,-2.462446685389801,-0.6142502261165077,0.014654733557430476,5.51404793716821
2022-12-06 15:44:03.8900,2.0669921777644373,0.08249955072893718,0.18529682845718584,-12.490005187554019,-4.983692912591595,-2.3230352368056613,-0.6285634099377477,-0.008634072620241068,6.613034447433052
2022-12-06 15:44:03.8990,1.8800090944023817,0.2077065637557962,0.1498391537540695,-11.501818802097402,-6.899321713126308,-2.0681941094006744,-0.6041414424271568,-0.006453756235783391,7.590329233945224
2022-12-06 15:44:03.9090,1.632636094026342,0.2903969150567095,0.10665784204824984,-9.901279587340063,-8.477237840189646,-1.719572455390137,-0.5320347053234793,0.04362878459477886,8.414214434729795
2022-12-06 15:44:03.9190,1.3473570424896766,0.32693078117502733,0.05965560936266617,-7.895223195579107,-9.650044020651894,-1.3053505202265483,-0.40878031034424755,0.15897229579153446,9.061671720331704
2022-12-06 15:44:03.9300,1.0481202740321796,0.31585395318026627,0.013444166523862402,-5.71387244036489,-10.372064702791247,-0.8598966530888827,-0.23716640916654994,0.3479902628916395,9.518463222103986
2022-12-06 15:44:03.9390,0.7586630436549443,0.25780375531414684,-0.026937251946557578,-3.5920323935808134,-10.619385445838576,-0.4227221098817128,-0.026227552225367944,0.6074080591185378,9.778589949936324
2022-12-06 15:44:03.9490,0.5011420508835316,0.15546962161265176,-0.05644036799466975,-1.7530249703664111,-10.390120836732548,-0.03630610578290712,0.20957522882731622,0.9210357470845926,9.843435175833473
2022-12-06 15:44:03.9590,0.29500876492880895,0.013593683944890798,-0.0705465631567022,-0.3954859998718151,-9.704925373006288,0.2572956856309577,0.4519278819810995,1.260346296535641,9.720760062302878
2022-12-06 15:44:03.9700,0.1560076768177772,-0.16103213751357248,-0.06588735788044794,0.31780805502798487,-8.607455487694793,0.42099826501844934,0.6808241850838063,1.5870527993061472,9.423611088878683
2022-12-06 15:44:03.9760,0.0951812957318463,-0.3596437820032374,-0.040865568602630256,0.2702365441700018,-7.164257094091924,0.42803135064178927,0.8770427479058425,1.8576724281323056,8.969144162965746
2022-12-06 15:44:03.9890,0.11783347698014614,-0.5717531306781384,0.003853322771554161,-0.5984204026177428,-5.463317458226293,0.26722920409438006,1.0245832364262895,2.029668949434543,8.377362903600636
2022-12-06 15:44:04.0000,0.2225244649772842,-0.7856683988436682,0.06514881607152931,-2.2818842742388097,-3.6103641919931295,-0.05308751331369249,1.1126543098486332,2.068213280979332,7.669803157201766
2022-12-06 15:44:04.0090,0.4003246848956838,-0.9893619961566713,0.13772632461050263,-4.698931340406886,-1.722078546262817,-0.5043374010417631,1.1368144095028514,1.9521105237255105,6.868251651715306
2022-12-06 15:44:04.0200,0.6346841916541041,-1.171695487733397,0.21496657684396073,-7.689655993963189,0.08417807452952916,-1.041563968991354,1.098981376163179,1.677366565640842,5.993605099918821
2022-12-06 15:44:04.0300,0.9023072894189661,-1.3239018067002248,0.2902416969377981,-11.0205389090615,1.7037123774884446,-1.6123537553274199,1.0062651701114298,1.2574344829488293,5.064928765209581
2022-12-06 15:44:04.0400,1.1753117135062685,-1.4410573214694045,0.3583409246415462,-14.402252339499352,3.059233040199309,-2.1688821162890517,0.8688815529769063,0.7202471493232082,4.0987620454697495
2022-12-06 15:44:04.0490,1.4246840206782896,-1.5230611875530946,0.4164795996263664,-17.5220719952671,4.113514876328118,-2.6788870622283993,0.697680703770738,0.10322723674158436,3.1088625543776476
2022-12-06 15:44:04.0570,1.6245942845059091,-1.5745125456110562,0.4644258642663733,-20.08784822063479,4.874922290611511,-3.1308380211926177,0.5019842142867804,-0.5520203825665813,2.1067345087726705
2022-12-06 15:44:04.0680,1.7565699576377,-1.6031108866139856,0.5036312842826668,-21.87380665551889,5.390929395569038,-3.5306831190748604,0.28835374559964055,-1.2040161046264815,1.103087004434357
2022-12-06 15:44:04.0810,1.8122185239988253,-1.6168940769518387,0.5357583462168769,-22.754783416893492,5.728548758960638,-3.891403120499977,0.06054638699268719,-1.8143497506291575,0.10975421160522786
2022-12-06 15:44:04.0900,1.7936161874688996,-1.6213361836137097,0.5612971987501807,-22.718635930362513,5.947219486032064,-4.220106438372963,-0.17958213266559298,-2.349582193508658,-0.8588777282968922
2022-12-06 15:44:04.1000,1.7115628354092312,-1.6174305607491712,0.5787939192088174,-21.855188931532798,6.074589193538034,-4.5082545031408,-0.4307206704478388,-2.7823959785993377,-1.7856626185866145
2022-12-06 15:44:04.1100,1.5828037791749663,-1.6013473741058555,0.5847801517059628,-20.329423595081025,6.094300184201785,-4.728031265149158,-0.6906528024579308,-3.091995413269455,-2.6516293233990478
2022-12-06 15:44:04.1200,1.427320419954518,-1.565655663183445,0.5742368265805824,-18.350842327088802,5.949066785142425,-4.834392452200293,-0.9548036555830733,-3.2638400843213984,-3.4374078018855703
2022-12-06 15:44:04.1300,1.2661074182793508,-1.5018448387902998,0.5414751400911769,-16.14729533565635,5.557703168890388,-4.771189123883012,-1.214816100514384,-3.2891749542350315,-4.124614071797554
2022-12-06 15:44:04.1400,1.1192576159652126,-1.4037798342201704,0.48146000163049263,-13.944341079544953,4.84333077429902,-4.480938139720958,-1.4575023268470035,-3.164982188417103,-4.6970592668619116
2022-12-06 15:44:04.1500,1.0040932698947185,-1.2713739621625912,0.3915840949476596,-11.947177494452763,3.768452441232607,-3.9188727195175446,-1.6650187160246803,-2.894870252317137,-5.141740984096998
2022-12-06 15:44:04.1600,0.9333236499854629,-1.1132042348159668,0.2735741087023053,-10.3230278825996,2.3679233470908745,-3.070742428055541,-1.8170915311105835,-2.4911251905134018,-5.449538558091759
2022-12-06 15:44:04.1700,0.9134612024408519,-0.9467020022472984,0.1346571098607365,-9.184554179829544,0.766107755972529,-1.9695069961956448,-1.8949879910345613,-1.977230427072656,-5.6157797668772815
2022-12-06 15:44:04.1790,0.9439237337145204,-0.7954435187532439,-0.013043602642443964,-8.577143394451333,-0.8329032755591412,-0.7010427305888832,-1.8855397302544024,-1.388834319785402,-5.641025458450037
2022-12-06 15:44:04.1900,1.0172967200513323,-0.6843853124995096,-0.1549870538346868,-8.474583846882041,-2.1816279189759737,0.6091216458894754,-1.7834981166089512,-0.7711103865021282,-5.531979656091845
2022-12-06 15:44:04.2000,1.1208300490823475,-0.6346090444723058,-0.2772843406487438,-8.786871856626357,-3.0400491567781747,1.8237241459702516,-1.591806428575688,-0.17253136011619966,-5.301824185251241
2022-12-06 15:44:04.2090,1.238513533399274,-0.6590496601921927,-0.3688667778267134,-9.378263531287852,-3.2252521581582663,2.8211600489707735,-1.3204483929678799,0.36260250133678507,-4.969426428707603
2022-12-06 15:44:04.2190,1.352831827917854,-0.7602135449449011,-0.422406716307193,-10.087320801427632,-2.646881003883964,3.5112406440004227,-0.9846609296176746,0.8001917586673196,-4.55768611999614
2022-12-06 15:44:04.2300,1.4459253424121996,-0.930245235138814,-0.4345439004337302,-10.74171778085538,-1.320730980090982,3.840504267020556,-0.6030464106044127,1.1196402267394283,-4.091800797724637
2022-12-06 15:44:04.2390,1.500615773498072,-1.1529771259392934,-0.4058226829059443,-11.168308791022763,0.640288581454511,3.7929479035713274,-0.19592434280546858,1.3145612872265628,-3.597992733372308
2022-12-06 15:44:04.2490,1.5018264001137402,-1.4071067601712695,-0.3403557498107814,-11.20410007546579,3.051942803566925,3.388394621667852,0.21593872094768288,1.3915265671760464,-3.1026399148284933
2022-12-06 15:44:04.2600,1.4384819858033602,-1.669543989268183,-0.24525186212167788,-10.712017363560728,5.691963983443542,2.678237861819016,0.6123006564037691,1.3674390757801018,-2.6312980539887794
2022-12-06 15:44:04.2700,1.305472827234572,-1.9181771043058287,-0.1299635257956725,-9.60038329797231,8.331856330463378,1.7395196610223673,0.9742771860387535,1.266044785223629,-2.2071171483706293
2022-12-06 15:44:04.2800,1.104960287967384,-2.1337510528993664,-0.005550162534814853,-7.840663086275419,10.761193678604716,0.6685573249174758,1.2851137670025297,1.1141513632735,-1.8487232421602353
2022-12-06 15:44:04.2890,0.8463606066644698,-2.3010519798234976,0.11631923305414847,-5.476179698531214,12.803287844428281,-0.4268169277030133,1.5308860031631368,0.9381364610552849,-1.5683335493122803
2022-12-06 15:44:04.3000,0.544816185270127,-2.4098012826901387,0.2246482698815124,-2.6166467381964957,14.32538238701509,-1.4379720045907947,1.7011000187511511,0.7611750338724075,-1.3710250284694774
2022-12-06 15:44:04.3100,0.21856563649160635,-2.4554169862153445,0.3104380980991972,0.5811298965663573,15.24692068331379,-2.2683555191503046,1.7891345794311004,0.6013517940111757,-1.2555064001869807
2022-12-06 15:44:04.3190,-0.11402971324007717,-2.4393752355450444,0.3677261001274091,3.940760548499839,15.545887860056789,-2.8455896087040506,1.7924477816523452,0.47063866466635,-1.2159725530089733
2022-12-06 15:44:04.3300,-0.43706981114865223,-2.3687622898869325,0.3940823841004363,7.294374145446214,15.259632714272854,-3.1296952000934968,1.7125416540882947,0.3747119809870787,-1.244244640798136
2022-12-06 15:44:04.3390,-0.7388265307899675,-2.254911151300633,0.39047471791630456,10.504943582623115,14.476877718466074,-3.115447418399956,1.5547582636235684,0.313594816466726,-1.331532273513115
2022-12-06 15:44:04.3490,-1.012388197992096,-2.1114709826848737,0.3606299340387096,13.479172757052789,13.321619773269735,-2.8287745600368153,1.3279635520900335,0.2829334912867901,-1.4695022068118702
2022-12-06 15:44:04.3600,-1.2552809186982397,-1.952471823754145,0.3101495898313671,16.169949270945654,11.93350583158198,-2.3191058660258608,1.0441269332156136,0.275477723139705,-1.6506271719862287
2022-12-06 15:44:04.3690,-1.4682780110946994,-1.7908289193624412,0.24559355785909454,18.569411139173795,10.450062122624635,-1.6502179217568451,0.7178269972177354,0.2823580368471096,-1.867980612436107
2022-12-06 15:44:04.3800,-1.6537179563540925,-1.637443281729573,0.17362637183380145,20.69513304954264,8.99413668062067,-0.8912444446008368,0.3657406865418441,0.2941109423927835,-2.114758896954787
2022-12-06 15:44:04.3900,-1.8136922188098257,-1.5007870537065746,0.10028344147987936,22.572789090487987,7.666983797864724,-0.10851208538575557,0.006078341200920865,0.3017374470818942,-2.3837705486971053
2022-12-06 15:44:04.4000,-1.9484529082980095,-1.3867517662546562,0.03046466519216314,24.21882321389473,6.545252376631715,0.6410933434134879,-0.34222686662857843,0.2979925279988151,-2.666932238563488
2022-12-06 15:44:04.4100,-2.0553637698502647,-1.2986294762387347,-0.03224776193861065,25.626468467335776,5.679837238098868,1.314074497124636,-0.6607465352501791,0.2786339716541021,-2.95469091530207
2022-12-06 15:44:04.4210,-2.1286535527525046,-1.2372557772637136,-0.08548148965741131,26.75812926699467,5.095942478523144,1.8810087582981678,-0.9331016561620896,0.24300015769409752,-3.2354372985831708
2022-12-06 15:44:04.4300,-2.1600655328446643,-1.201363597211554,-0.12781679421185332,27.546193618425644,4.794939592932056,2.324776574514183,-1.1464472076672374,0.1934779832679765,-3.4952063624366843
2022-12-06 15:44:04.4400,-2.140250440358554,-1.1880662700548577,-0.15850031802578823,27.902352077175774,4.758131431646525,2.637711874533957,-1.292519849788569,0.13406698595509564,-3.717940529088772
2022-12-06 15:44:04.4500,-2.0605339125002,-1.1932973853730906,-0.1771934712801062,27.733068641579386,4.951186418795067,2.818591558524584,-1.3681141692425027,0.06878520404282822,-3.8862882723592618
2022-12-06 15:44:04.4600,-1.9146084618812023,-1.2120935109806832,-0.18381038897349164,26.957126481129475,5.327669789072322,2.870036586868736,-1.3750773492035282,0.0006714161880539782,-3.9826358856385635
2022-12-06 15:44:04.4700,-1.6997951903226247,-1.2387262954253435,-0.17848996965403235,25.520986893609653,5.8310501560320995,2.7969421977269446,-1.3199740453535096,-0.06829074711644056,-3.9900813849602352
2022-12-06 15:44:04.4800,-1.4177398567030497,-1.2667626790045508,-0.16169100701305872,23.409180751842037,6.3956081286783535,2.6062962867259842,-1.2135148078937172,-0.13650414974316172,-3.893268623620576
2022-12-06 15:44:04.4900,-1.07461148860519,-1.289155109720147,-0.13434286911703713,20.6492210337506,6.947136890165108,2.3081053505859996,-1.0697501631243167,-0.20185668507234691,-3.67913615960199
2022-12-06 15:44:04.4990,-0.6809481302276361,-1.2984759278574638,-0.09797006755416553,17.31213648438178,7.404482009048702,1.916693905202441,-0.9049764887592293,-0.26120086993704383,-3.3375988470422926
2022-12-06 15:44:04.5110,-0.25125713253491205,-1.2874046376039645,-0.054730159567618106,13.509995899055212,7.683052968944146,1.4516152849180362,-0.7363119739125744,-0.31067795376445667,-2.862106666067266
2022-12-06 15:44:04.5210,0.19659028302715623,-1.2495223460750506,-0.007343124603911569,9.39123053535219,7.701225412559012,0.9376600447060572,-0.5799671989200423,-0.34694566870198346,-2.250072710601258
2022-12-06 15:44:04.5300,0.6421739817753576,-1.1803559339546577,0.0410692380269736,5.133965713756154,7.389792698849502,0.4038455934190269,-0.44934255213320123,-0.36881562677099794,-1.5033432318225488
2022-12-06 15:44:04.5400,1.0635727607177217,-1.078469085066275,0.08720709654708417,0.9372693780246639,6.703365737845778,-0.11838746865544898,-0.35324422738541167,-0.3783726906243514,-0.6290349357516276
2022-12-06 15:44:04.5500,1.4386877934037834,-0.9462756376044338,0.12788724095041942,-2.9899266941461513,5.631206303446265,-0.5975925320004192,-0.2946642259753803,-0.38068024514586735,0.35907310472737697
2022-12-06 15:44:04.5600,1.7468952065564383,-0.7902411256086934,0.16042730358272822,-6.442677141970866,4.204099909275098,-1.005468508339283,-0.27055766837880313,-0.38181336103813557,1.4389386822477757
2022-12-06 15:44:04.5690,1.9710224938846785,-0.6202989953137115,0.18306210960074815,-9.237069324498313,2.49435259752472,-1.3206964764093367,-0.27276597559211413,-0.38587026558649284,2.579397251407447
2022-12-06 15:44:04.5800,2.0994662788829714,-0.4485877221390706,0.19522843339180793,-11.229941848374581,0.6080721137883836,-1.532488477896236,-0.28979506915623354,-0.3921826179807545,3.7410770419361623
2022-12-06 15:44:04.5900,2.128032036879576,-0.2878555195007154,0.19755395524917363,-12.338657703069588,-1.3283407029478045,-1.6420733403195265,-0.30887881137927153,-0.3938657180277103,4.879432417753557
2022-12-06 15:44:04.5990,2.0609534085591794,-0.14993331625861303,0.19154955731890805,-12.556190675675518,-3.183792562266967,-1.6609574077918319,-0.3178568478050414,-0.3782828006767159,5.9492256020920875
2022-12-06 15:44:04.6100,1.9106902940212678,-0.04455234407494661,0.179202084345515,-11.956478751341043,-4.8366913803181415,-1.6068450492168156,-0.3067072458748169,-0.32930563586595574,6.9091716501839775
2022-12-06 15:44:04.6190,1.69647571751428,0.021386857430399173,0.16268894871340753,-10.687372891880752,-6.185682752191533,-1.4996499922219533,-0.2687460229872675,-0.23076457895730274,7.725575464953399
2022-12-06 15:44:04.6300,1.4419701700238023,0.04411472459510581,0.14426886373822614,-8.952450360771818,-7.156309960956948,-1.359384664695557,-0.2014477509344448,-0.07031264489986616,8.374389211659745
2022-12-06 15:44:04.6400,1.1725771866981536,0.022963461033517506,0.12623963673041497,-6.986208551228909,-7.70397577133397,-1.2057541677290138,-0.10674508753262807,0.15703999940989255,8.841729974228818
2022-12-06 15:44:04.6500,0.9129209616992446,-0.03986045028651089,0.1108365900135462,-5.028101101309372,-7.814192924780066,-1.0580861276097984,0.009313327246573853,0.4463620012708835,9.123226134646009
2022-12-06 15:44:04.6600,0.6847920623742066,-0.13959768533686231,0.10003986653704439,-3.2996571316221437,-7.501218159059602,-0.9345320793995158,0.13753001013855018,0.7816867995487317,9.222611600943363
2022-12-06 15:44:04.6700,0.5056719234115948,-0.26931038570035554,0.09535193607467071,-1.9868733270617658,-6.805772226771998,-0.8505106372973229,0.26696851139260924,1.1366210936417596,9.149909865257552
2022-12-06 15:44:04.6800,0.38781852302557307,-0.42033261493703744,0.09761600250575635,-1.2283705006754368,-5.791922963864283,-0.8170270923739097,0.38653202851928065,1.4767561173706925,8.919459734732664
2022-12-06 15:44:04.6900,0.33782774047710246,-0.5828498737495127,0.10689457073269856,-1.1087989831099605,-4.542702284532354,-0.839319387858527,0.48644949056989534,1.7637437899205832,8.547980508435263
2022-12-06 15:44:04.7000,0.3565577029175528,-0.7466315997836355,0.12241421923672842,-1.656476456675137,-3.1539733156907723,-0.9158561190228793,0.5594506179259054,1.9605206314997965,8.052875384210907
2022-12-06 15:44:04.7100,0.4393212625422567,-0.9018709524010706,0.14263747000726895,-2.844135992725043,-1.7265744381173505,-1.0379275593100408,0.6014393713378976,2.0366953319689296,7.450988474426963
2022-12-06 15:44:04.7200,0.5763212052210874,-1.040036550424282,0.1655546359318773,-4.592049210837495,-0.3574733059234218,-1.1907075650987524,0.6115446113777903,1.972875784829143,6.757974648131303
2022-12-06 15:44:04.7300,0.753392661412539,-1.1546519666772674,0.18921397298820905,-6.773623856355437,0.8690476924786562,-1.3566552880175966,0.591565113396666,1.7629160540049689,5.988272636686259
2022-12-06 15:44:04.7400,0.9531611954841168,-1.241954944059071,0.21235647706541053,-9.224375467434767,1.8894275981066637,-1.52101345446956,0.5449666248489873,1.4136981071819397,5.155455979194194
2022-12-06 15:44:04.7500,1.1566749510691343,-1.3013684303478408,0.23489860186258146,-11.755276791566823,2.667570403213998,-1.6776143329121214,0.4756759856939011,0.9429035614986315,4.27263667797636
2022-12-06 15:44:04.7560,1.345430139749279,-1.3356167664850813,0.25800378939617213,-14.170618594399498,3.199261724881022,-1.8323236312691242,0.38696646219536057,0.3758479063210014,3.3527491051712888
2022-12-06 15:44:04.7690,1.5035170343304027,-1.3502517498260502,0.2836214944579302,-16.288898876588377,3.5121850087185225,-2.0019179837487555,0.2807357000360303,-0.2575232647723687,2.4088207581006644
2022-12-06 15:44:04.7800,1.6194343051760804,-1.3524747455219603,0.3135993296932917,-17.963333239285035,3.659354467893572,-2.207928759402375,0.1573673724724153,-0.9248824734092125,1.4543986774031028
2022-12-06 15:44:04.7890,1.687095305795468,-1.3494525266758093,0.3486810377612677,-19.09721759063747,3.705825336237306,-2.467281875481756,0.01613424793763068,-1.593013676888048,0.5040416661815555
2022-12-06 15:44:04.8000,1.705816184520266,-1.346595715377019,0.3877473336956043,-19.65012617522064,3.711798645880216,-2.783147971494234,-0.14408615430458446,-2.228826350370662,-0.42644444586144653
