time,gFx,gFy,gFz,ax,ay,az,wx,wy,wz
2022-12-06 15:33:19.3210,-0.12398400948602349,-0.8226985663277068,0.1884493598983626,0.20547287640158826,-0.8031424449888181,1.4480819784120846,-0.7030236177569896,-2.7452194615160517,-3.3838228992937087
2022-12-06 15:33:19.3310,-0.12047084061944777,-0.8195280729369899,0.19272330232119955,0.5758149315355803,-0.9359614843096806,1.3319564772722243,-0.8039273891047587,-2.7149080147517712,-3.1586436515476586
2022-12-06 15:33:19.3410,-0.11696179056576529,-0.817005237788951,0.1967478504992966,0.9387781668079556,-1.058536751681979,1.2149653714775763,-0.9032840489112247,-2.683418532227397,-2.9324163100023433
2022-12-06 15:33:19.3510,-0.1134603356817773,-0.8157771064088194,0.20024086026615362,1.2872826807677904,-1.1611197620313574,1.095810369263874,-0.9987250701154694,-2.64811095275964,-2.702423782688799
2022-12-06 15:33:19.3610,-0.10998881818824387,-0.8163407744758157,0.20290994996038175,1.6151365016360997,-1.2362017915413477,0.9739722230087575,-1.0878755604457813,-2.606229309780065,-2.466267263239484
2022-12-06 15:33:19.3710,-0.10658320868812966,-0.8190139996774599,0.20446985526688632,1.917224918133179,-1.2790609935893782,0.8498953105373648,-1.1684166766830015,-2.5550742283996204,-2.22216387984436
2022-12-06 15:33:19.3810,-0.10328602266004175,-0.823946283299075,0.20467399102707756,2.189570485075611,-1.287741601411909,0.7249015535809362,-1.2381626749549322,-2.4922234796986538,-1.9691410484114584
2022-12-06 15:33:19.3910,-0.10013924526296776,-0.8311519114141691,0.20335459230461225,2.4292960319693013,-1.2626228971920872,0.6008665509379911,-1.2951607310064948,-2.4157709557473908,-1.7071264680964584
2022-12-06 15:33:19.4010,-0.09718130570990684,-0.8405449805494561,0.2004607549127091,2.6345388592572285,-1.2058201724927915,0.4797518337518251,-1.3378102297325547,-2.324536117065666,-1.4369442062872286
2022-12-06 15:33:19.4110,-0.09445117890409467,-0.8519651643414988,0.19608142219853902,2.804378651708147,-1.1206233222241049,0.36313365964207517,-1.3649868653898545,-2.218204266225222,-1.1602368115505386
2022-12-06 15:33:19.4210,-0.09199545463362584,-0.8651947318110157,0.19044369457767688,2.938805032677595,-1.0110636416379573,0.251873426404818,-1.3761510702455277,-2.0973845773720834,-0.8793396549608403
2022-12-06 15:33:19.4310,-0.08986651320499278,-0.8799747525040519,0.18388557846773762,3.0386630499971097,-0.8815835262195236,0.14601811462205935,-1.3714209898149248,-1.9635948256068534,-0.597131268851263
2022-12-06 15:33:19.4410,-0.0881020750097204,-0.8960283759190552,0.17681190915792191,3.105461330891551,-0.7367296207918714,0.04492107565924026,-1.351596653868137,-1.8191866106369001,-0.31687185472037893
2022-12-06 15:33:19.4510,-0.08669084576311711,-0.9130936564638138,0.16964675363258627,3.1409952555697895,-0.580809393889979,-0.05251039990890321,-1.318132509082738,-1.6672199071013523,-0.0420313623384055
2022-12-06 15:33:19.4610,-0.08554454519081832,-0.9309620409149958,0.16279246199697184,3.146900213177037,-0.41750793893739097,-0.1475542816889456,-1.2730666066532863,-1.5112948162347717,0.22389012748790824
2022-12-06 15:33:19.4710,-0.08449769702001515,-0.9495136988635978,0.15659735893828558,3.12436267264288,-0.24951538454672903,-0.24146322042938567,-1.2189209715617648,-1.3553536647070676,0.4775344384597267
2022-12-06 15:33:19.4810,-0.08333933905485444,-0.968738165654267,0.1513272502031593,3.0741518131874863,-0.07825258378018211,-0.335289737036125,-1.1585847553077802,-1.2034670989092355,0.7158250288681778
2022-12-06 15:33:19.4910,-0.08185922637188157,-0.9887302588388279,0.1471362245045793,2.9969239646586114,0.09620712838428594,-0.42969178275496184,-1.095181836569091,-1.05960808116117,0.9360560955087748
2022-12-06 15:33:19.5010,-0.07988393927775138,-1.0096570966747893,0.1440399384665353,2.8935758204137536,0.27495624190465306,-0.5246993852718926,-1.031916583188583,-0.9274094062634887,1.1359308403827157
2022-12-06 15:33:19.5110,-0.07728943352793849,-1.03169924209321,0.1419034736210896,2.7654267121249996,0.45981199724324745,-0.6195144245924759,-0.9718945641870091,-0.8099064283573703,1.313564073691699
2022-12-06 15:33:19.5210,-0.07399295484936531,-1.0549760092500917,0.1404576318813034,2.6141581603536466,0.6526838515329177,-0.7124867331140405,-0.9179290076401208,-0.7092836940296406,1.4674703790398167
2022-12-06 15:33:19.5310,-0.06993635534587482,-1.079471036140507,0.13934893514257665,2.4415859753206104,0.8548751381250337,-0.8013854210011432,-0.8723572801853637,-0.6266583479349884,1.596558226595817
2022-12-06 15:33:19.5410,-0.06507378468739818,-1.1049745021151125,0.13821527709752693,2.2494122961802057,1.06645600891652,-0.8839586736242109,-0.8368929845294115,-0.5619361786218484,1.7001432498646547
2022-12-06 15:33:19.5510,-0.059373292409386276,-1.131049445159172,0.13677008970491805,2.039111533082438,1.2857785217952413,-0.9586377315821739,-0.8125287765518469,-0.5137701729901811,1.7779798615378932
2022-12-06 15:33:19.5610,-0.052834759730060236,-1.157018409248735,0.13487628073281005,1.8120418631044704,1.5091237350576716,-1.0251926156609086,-0.79949123589189,-0.4796423693569131,1.830296671587622
2022-12-06 15:33:19.5710,-0.045517238205093714,-1.181964313843452,0.13259508074935053,1.5697531225564518,1.7304589895209201,-1.0851875307907872,-0.7972393820620528,-0.45607965081972907,1.8578184701375018
2022-12-06 15:33:19.5810,-0.037562884446039536,-1.20474739708056,0.130202845887563,1.314362589000463,1.9413335604351034,-1.1421498168285578,-0.8044972308588858,-0.43899999176012494,1.8617664522308568
2022-12-06 15:33:19.5910,-0.029205977210847774,-1.2240496651054256,0.12817812019666447,1.0488562038777065,2.1310036602987967,-1.2014389744303875,-0.8193180234488419,-0.42416474018803946,1.8438394166165497
2022-12-06 15:33:19.6010,-0.0207621958761138,-1.2384620397408101,0.12716528969393304,0.7772239710934388,2.286922891843869,-1.269867662328492,-0.8391855808139926,-0.4076888108401878,1.806184459821058
2022-12-06 15:33:19.6110,-0.012602738935982957,-1.2466250954935336,0.12791755017350998,0.5044145338223809,2.395733853186688,-1.3551322592905708,-0.8611575553655175,-0.3865456367945242,1.751364172463554
2022-12-06 15:33:19.6210,-0.0051278059763885326,-1.2474215293951574,0.13121877301785428,0.23618452355805847,2.4448237020949812,-1.4650649044176376,-0.8820469405456652,-0.3590048410968682,1.6823180541075349
2022-12-06 15:33:19.6320,0.0012405224512354615,-1.240199390698278,0.13778853755831344,-0.020998014287309134,2.4243549022978224,-1.6067158543518518,-0.8986319319909148,-0.32495046265457406,1.6023025595796598
2022-12-06 15:33:19.6420,0.006030285124770172,-1.2249863280166728,0.14818014327237913,-0.2598168585286752,2.3294883053622772,-1.785340698447341,-0.9078846013242344,-0.28603328657827143,1.5147858111410104
2022-12-06 15:33:19.6510,0.008654149501393043,-1.202645793841663,0.16267653654177003,-0.4716395536456724,2.162357595579196,-2.0033920745764733,-0.9072072534803625,-0.24561392412228203,1.4232757611424949
2022-12-06 15:33:19.6620,0.008320261071621048,-1.174932804036318,0.18117944407573777,-0.6457706686600299,1.9333177406735729,-2.2595342897759383,-0.8946538762628189,-0.20846852789537756,1.3310741237779755
2022-12-06 15:33:19.6710,0.003947000166306971,-1.1444281061469161,0.20309077077177903,-0.7686344548126414,1.6611175584959172,-2.5476358213366823,-0.869100375701965,-0.18026104281391137,1.2409689316659909
2022-12-06 15:33:19.6810,-0.005882220461916622,-1.1143547608454083,0.22720662055580992,-0.8232123135534088,1.3718876750044642,-2.855801882140079,-0.8303259512337434,-0.16682202831314594,1.1548994708571931
2022-12-06 15:33:19.6910,-0.02288616417966897,-1.0882982751228638,0.2516658878027652,-0.7891186202722109,1.0970635222595417,-3.1657387376063273,-0.7789824616448128,-0.1733036050862761,1.0736414095665257
2022-12-06 15:33:19.7010,-0.048943404391623944,-1.0698580561925541,0.2739991195962054,-0.6436836304573871,0.8704861474758082,-3.452894316828168,-0.7164497865451807,-0.2033032624759636,0.9965661506233312
2022-12-06 15:33:19.7110,-0.08582565299257197,-1.0622593628861563,0.29130683255609713,-0.3643054818476425,0.7249577794885148,-3.6877682963263134,-0.6445935694560706,-0.2580671366423846,0.9215299108759881
2022-12-06 15:33:19.7210,-0.13481916339122577,-1.0679542252374044,0.3005690996527432,0.0678878510670349,0.6885305338654237,-3.838561567842574,-0.5654545053432818,-0.335893966211608,0.8449426962861817
2022-12-06 15:33:19.7310,-0.19627577614922992,-1.088237251076002,0.2990599785391963,0.6633340519204295,0.7807885582251544,-3.8750459621338837,-0.48090727661931487,-0.43186116417289283,0.7620499311344178
2022-12-06 15:33:19.7410,-0.26915531321309705,-1.122902663443908,0.28481663935606766,1.4188471325010554,1.009356278235569,-3.773261022391219,-0.392335787291282,-0.5379775107704472,0.6674320888153982
2022-12-06 15:33:19.7510,-0.3506310063015833,-1.1699814742624903,0.25709632998581333,2.3126872749343046,1.3668980623605838,-3.520423046184091,-0.30038217634265907,-0.643826977791871,0.5556992160611843
2022-12-06 15:33:19.7610,-0.43583904701947834,-1.2256247193821643,0.2167466779455785,3.300752830431227,1.829049657628095,-3.1192869743688347,-0.20484194964296124,-0.7377072527280889,0.42233256623499565
2022-12-06 15:33:19.7710,-0.5178672073268826,-1.2842265524027392,0.16641559427984665,4.314902332987846,2.3540082224482552,-2.5911553042574837,-0.10479791191727746,-0.808190268823321,0.2646028688676178
2022-12-06 15:33:19.7810,-0.5880880912916276,-1.338889347166531,0.11052726404488687,5.264582118431946,2.8847254269650904,-1.9767511296848321,0.0008963321346983945,-0.8459462677877879,0.08247388318648075
2022-12-06 15:33:19.7910,-0.6369384853607242,-1.3823066571369322,0.05493686853046478,6.043020641008648,3.354616979867372,-1.3341393156821875,0.11270931372026327,-0.8455696838685781,-0.12062330430106671
2022-12-06 15:33:19.8010,-0.6552129416939588,-1.4080429415110365,0.006164490891690947,6.539142101962102,3.6972509252855814,-0.7326982573224474,0.2292396290765665,-0.806978644248523,-0.33731268641348433
2022-12-06 15:33:19.8110,-0.6358361956306922,-1.411967296500419,-0.029809491277643225,6.655589114804822,3.859161553664808,-0.24233700652380677,0.3462769022095121,-0.7357738971712431,-0.556359327599453
2022-12-06 15:33:19.8220,-0.5758415000958763,-1.3933319871282834,-0.04894301590112091,6.330794203901095,3.812572426100558,0.08098591096177594,0.4568725396961851,-0.6420611016402084,-0.7636405921944291
2022-12-06 15:33:19.8320,-0.47794348224040145,-1.3549629233681042,-0.05017396014343657,5.55917178244844,3.5629081263951137,0.20895219615708366,0.5527571061920052,-0.5379127314325376,-0.9441484824414633
2022-12-06 15:33:19.8410,-0.35092415062641075,-1.3024190175954105,-0.03553690812469267,4.401312785940586,3.1470815195732174,0.14740685423476207,0.6265475967624444,-0.4344320483644431,-1.0847031777339258
2022-12-06 15:33:19.8510,-0.20835854547603533,-1.2425185378706691,-0.009242000176549766,2.978292344963705,2.6229633016656915,-0.06810909663564323,0.6736141082574412,-0.3395362921096629,-1.1765502254659734
2022-12-06 15:33:19.8610,-0.06590515761802748,-1.1818753016001033,0.02373264963280795,1.4498599568613717,2.0549397188164997,-0.38554215286080706,0.6927850921839362,-0.257034197148015,-1.2168845887610291
2022-12-06 15:33:19.8710,0.061970399766082915,-1.125887673214652,0.05873430851054594,-0.01765309676887673,1.5013755956879453,-0.7507279031171555,0.6859309520557264,-0.1869313161947664,-1.2087991277515457
2022-12-06 15:33:19.8810,0.16473215717603726,-1.0782534519757048,0.09187318377311482,-1.2838519340790424,1.0069605569219913,-1.116229425241677,0.6570216206901325,-0.12659300982245272,-1.1599025652694304
2022-12-06 15:33:19.8920,0.2371332028415456,-1.04088969693421,0.12005172028281956,-2.257114895316199,0.5997033221222837,-1.4438748355717759,0.6111701544903592,-0.07234461824345965,-1.0803292144709242
2022-12-06 15:33:19.9020,0.27900222477883135,-1.0141388123208306,0.1409159146816075,-2.901883833639256,0.2913140219538194,-1.704470231434363,0.5538700997324176,-0.021040846909760505,-0.9808273938521851
2022-12-06 15:33:19.9110,0.2938917530671938,-0.9971531972825022,0.1528340301658714,-3.2312481249182663,0.07994489296665128,-1.8772257848679326,0.4904737701506531,0.028886577210184856,-0.8713220430844699
2022-12-06 15:33:19.9210,0.28729997588179285,-0.9883348807396141,0.15490620340919362,-3.290717859927144,-0.045810476327510355,-1.949386750178097,0.42589190708247376,0.07720323992775457,-0.7600929219139896
2022-12-06 15:33:19.9310,0.26510302674049185,-0.9857378469622892,0.1470119385738192,-3.1403001639508332,-0.10280255853647019,-1.9161520389969555,0.36443367664491005,0.12240010465811202,-0.6535233760480501
2022-12-06 15:33:19.9410,0.23257738956139298,-0.9873973912086288,0.12987331072320654,-2.8403744861195315,-0.10976365557888124,-1.7809404007412486,0.3096860727666483,0.16260038872092214,-0.5562279616226272
2022-12-06 15:33:19.9510,0.1940754319814389,-0.9915737369649447,0.1050705847137289,-2.4439942910572765,-0.08450063072458618,-1.5556525048940368,0.2643781392746745,0.19637309244634937,-0.4713181747447274
2022-12-06 15:33:19.9620,0.15315212426188965,-0.9968950820432957,0.07493983631752023,-1.9951795930465364,-0.04195931234099354,-1.2602589556126986,0.23024717427353225,0.22310512782878603,-0.4006350710066449
2022-12-06 15:33:19.9710,0.11283259651292114,-1.0023940971071983,0.042318567846521146,-1.5306434294929645,0.006707977455988222,-0.9211199256017619,0.2079636773282008,0.2428726678548683,-0.34489328966149546
2022-12-06 15:33:19.9810,0.07577126329041273,-1.007456928827199,0.01017120205653622,-1.0819832599093748,0.054095932216437145,-0.5679230631901505,0.19716086380475203,0.2560401526963229,-0.30376767429181145
2022-12-06 15:33:19.9920,0.044209044920059594,-1.011724765901471,-0.018816978863494222,-0.6764027414462892,0.09579717685064891,-0.22977851398352767,0.19657929412463487,0.2629110418725651,-0.2759905548023083
2022-12-06 15:33:20.0010,0.01979382714562756,-1.0149908009207314,-0.04257343829850249,-0.3356499696374369,0.12936956368789612,0.06856813387609585,0.20430495883001987,0.26363172144043856,-0.2595217009057899
2022-12-06 15:33:20.0110,0.003414137146708918,-1.0171232224808398,-0.05982304206313831,-0.07420775022830572,0.15340170325579527,0.3094627366678727,0.21805679168492195,0.25834471642317,-0.25180940375229527
2022-12-06 15:33:20.0210,-0.004830197124295549,-1.0180268396460441,-0.07010114490375959,0.10179841291293226,0.1669092698228881,0.4834531006657547,0.235469216662737,0.24744058455569962,-0.25010033826437494
2022-12-06 15:33:20.0310,-0.005498418257983306,-1.017639616952015,-0.0736302528252573,0.19411956320584256,0.16911691785560912,0.5887919484666526,0.2543226592990264,0.23173272584014698,-0.25172175647344036
2022-12-06 15:33:20.0410,0.0004084681956268107,-1.0159506046831699,-0.0711303714825852,0.21053029643825621,0.1595417974291194,0.6298488375739647,0.272698174523826,0.2124602709907229,-0.2542778807999567
2022-12-06 15:33:20.0520,0.011654017473267778,-1.0130224372555028,-0.06362937811785574,0.16249886787808504,0.1382261450631482,0.6151499807573245,0.28905887009454423,0.19113959018872673,-0.25575125727956105
2022-12-06 15:33:20.0620,0.026897129745975433,-1.0090032442038006,-0.05230942805584289,0.06328012554824783,0.10595368108399236,0.5556005098315546,0.30227747162222,0.16935854662346034,-0.2545401676970389
2022-12-06 15:33:20.0710,0.04474058958294703,-1.004120128783763,-0.038395560371331974,-0.07313779626031854,0.06432055191694128,0.4631180150504965,0.3116312238434506,0.14860800584405645,-0.24947515323225258
2022-12-06 15:33:20.0810,0.06373704644861605,-0.9986571445987152,-0.023078157162106747,-0.232359478568475,0.015621892383644136,0.3496653044209987,0.3167775925461013,0.13019321890991548,-0.23984318522628303
2022-12-06 15:33:20.0920,0.08240602404442662,-0.9929275800249906,-0.007458243778864092,-0.3996603852348273,-0.03738395451287625,0.22658354883385687,0.3177169397199589,0.11521002722686889,-0.22542037730642706
2022-12-06 15:33:20.1010,0.0992940160528084,-0.9872491505690144,0.00749404711348833,-0.5602983757409409,-0.09173311461234586,0.10412126521871619,0.3147459882938245,0.10454238710647897,-0.20649180109474438
2022-12-06 15:33:20.1120,0.11307243402478995,-0.9819255423053614,0.020973514361815427,-0.7002424292827375,-0.14446909704876837,-0.008926301983794668,0.3084053730696698,0.09884291672837725,-0.18383382685604427
2022-12-06 15:33:20.1220,0.12264471131163943,-0.9772338539071999,0.032365538370139516,-0.8071614803337125,-0.19279425463257044,-0.10550275664846269,0.2994232311240732,0.09848183584899918,-0.1586482608631342
2022-12-06 15:33:20.1310,0.12723625262034327,-0.9734149853267834,0.04125867914951526,-0.8713843049726977,-0.234175075339171,-0.18047501830886256,0.288655702020896,0.10347468542726465,-0.13245341078036457
2022-12-06 15:33:20.1420,0.1264559303117013,-0.9706624499314849,0.04744239644868653,-0.8866332239626089,-0.26643811994233396,-0.2306778237014514,0.2770252603458709,0.1134139612127929,-0.10694496498207774
2022-12-06 15:33:20.1520,0.12032808843234603,-0.9691065816544772,0.05089340147900992,-0.8504766450887753,-0.2878989503726869,-0.2548241830142453,0.26545838812246253,0.12743207930164258,-0.08384151445430058
2022-12-06 15:33:20.1620,0.10929461985961067,-0.9687958214308592,0.05175576908392593,-0.7645079332158684,-0.2975377133871878,-0.2533304951887258,0.2548250246645071,0.1442199773534173,-0.06473070994779286
2022-12-06 15:33:20.1720,0.09418126381148963,-0.9696811901748453,0.050317610874813554,-0.6342335802795592,-0.29518611422856167,-0.22810208859036907,0.24588404665150657,0.16212242140840807,-0.050933231608692654
2022-12-06 15:33:20.1820,0.07611812503019103,-0.9716113925645359,0.04698477503065762,-0.4685912874903555,-0.2816564273931264,-0.18229659593743758,0.239241737416583,0.17932194439682048,-0.04340234580005372
2022-12-06 15:33:20.1920,0.05641175526509128,-0.9743442773714134,0.04225079457746809,-0.2790055547942986,-0.25874056425356073,-0.12006331680368643,0.23533138161672254,0.19410047925947868,-0.042675610516567535
2022-12-06 15:33:20.2020,0.036386421816623694,-0.9775764309146676,0.036660875288168686,-0.07801361507978184,-0.22903260371706244,-0.04624394669714929,0.23441819446729156,0.20513545822709364,-0.048888077104849596
2022-12-06 15:33:20.2120,0.017229084256166777,-0.9809867402223645,0.030767586126550454,0.12229358600301066,-0.1955769641545852,0.03399352134746959,0.23662572970751755,0.21176015825663266,-0.06184057878353854
2022-12-06 15:33:20.2220,-0.00012967709144084505,-0.9842835994670813,0.025079967634812902,0.31166491390726725,-0.16140968242076317,0.11560516535146778,0.24197307553003689,0.2141122886862155,-0.08109975463861707
2022-12-06 15:33:20.2320,-0.015081795983743092,-0.9872436201386464,0.02001504319298955,0.48265343805478855,-0.12911087115379055,0.19416633536213723,0.25040938743924596,0.21311818969160432,-0.10610043444153705
2022-12-06 15:33:20.2420,-0.027349790932707552,-0.989734436846263,0.015865478041117848,0.6310391240116479,-0.10047821474993365,0.2662987990724511,0.26183348592728456,0.21030380751791095,-0.13622795799138718
2022-12-06 15:33:20.2520,-0.036937669489363036,-0.9917208754738975,0.012793846443395126,0.7556835783330844,-0.07636828248475754,0.32989463595057245,0.2760920469519706,0.20747037687952424,-0.17086932244039363
2022-12-06 15:33:20.2620,-0.04403606432309988,-0.9932569173422998,0.01085363050636111,0.8578529804322692,-0.056695038677579586,0.38406550101723236,0.2929596221403881,0.20631035979441237,-0.20943080786000073
2022-12-06 15:33:20.2720,-0.04891013029097185,-0.9944663897594967,0.010026839226586131,0.9401799138231508,-0.04055774392594901,0.42885521954649153,0.3121125422809827,0.20805712340246718,-0.25132632677073585
2022-12-06 15:33:20.2820,-0.051806912556899,-0.9955161952303817,0.010264394199332871,1.0055938037179977,-0.02646658580849469,0.4648349635333966,0.33311156559016997,0.21325053572775152,-0.2959479965603577
2022-12-06 15:33:20.2920,-0.0529035117586248,-0.9965862615916078,0.011518664829696131,1.056549775423212,-0.012624842731747528,0.49271178697528684,0.35540438088374876,0.22166445158983558,-0.34263581750647126
2022-12-06 15:33:20.3020,-0.052289687104506925,-0.9978387082154526,0.013763340101729398,1.0946618644530055,0.0027698471425105196,0.5130371753996075,0.37835214482804813,0.23239745949418106,-0.39066037635580647
2022-12-06 15:33:20.3120,-0.04996598038869052,-0.9993871826324022,0.016999881618492765,1.120602920271055,0.021222547314229796,0.5260484949073885,0.4012776497189357,0.24408904348288948,-0.4392225836057126
2022-12-06 15:33:20.3210,-0.04584944356547504,-1.0012691127887607,0.021251206540176756,1.1341057224501037,0.04364839260004774,0.5316456879332202,0.42352780723840583,0.25519703286850387,-0.48746780825376
2022-12-06 15:33:20.3320,-0.03979514421615655,-1.0034279200543996,0.026544347237142604,1.1340557029960958,0.07013137456985777,0.5294958267398567,0.44453887522133995,0.2642638005444406,-0.5345122849362729
2022-12-06 15:33:20.3420,-0.03164316634816296,-1.0057138389392764,0.03288742392982052,1.1187851244231597,0.09981319047381063,0.5192396220178812,0.4638893777733731,0.2701097603939706,-0.5794812768608343
2022-12-06 15:33:20.3520,-0.02128553629272076,-1.0079072386066363,0.04025030908566937,1.0866243480227777,0.13098489843681285,0.5007300275042862,0.48132710435598597,0.27192169547771033,-0.6215576642415749
2022-12-06 15:33:20.3620,-0.008729199234183428,-1.0097597616566756,0.04855652816954701,1.0365830073661744,0.16138903233899976,0.47420487617981083,0.4967653698660587,0.2692427795335648,-0.6600368449786356
2022-12-06 15:33:20.3720,0.005871224553144792,-1.0110421073890015,0.05768618226765304,0.9688941510074084,0.18865721063757748,0.4403384318129491,0.5102544758191973,0.2619030470966175,-0.69437830926118
2022-12-06 15:33:20.3820,0.022219288872168903,-1.0115869675462124,0.06748466081153522,0.8852121962353443,0.21076597620540305,0.4001967575758586,0.521939920533583,0.24993756399393074,-0.7242407804724931
2022-12-06 15:33:20.3920,0.039908977329130825,-1.011319853923326,0.0777733074872678,0.7884639190164975,0.22641374402480005,0.3551501683668693,0.5320193553461855,0.2335268610093908,-0.7494936155991733
2022-12-06 15:33:20.4020,0.05846337353483184,-1.0102738303552918,0.08836011346591488,0.6825116940259457,0.2352652235464843,0.3067723294469865,0.5407093336836925,0.21297433137732888,-0.7702068585021468
2022-12-06 15:33:20.4120,0.07736099555614365,-1.0085860411681205,0.09904779619421998,0.5718214330813925,0.23803088134678543,0.25674645257187495,0.5482304874425472,0.188718738839066,-0.7866274415374007
2022-12-06 15:33:20.4220,0.09603643247765538,-1.0064791531120836,0.1096368540197134,0.4613038126962824,0.23637365062268112,0.20680860625114614,0.554813424443919,0.16136927707784154,-0.7991524163994044
2022-12-06 15:33:20.4320,0.11385585861032785,-1.0042376785157088,0.1199241668957185,0.35642116487870423,0.23269907871156384,0.15874540934000056,0.5607189822153588,0.13174354418913223,-0.8083125880591133
2022-12-06 15:33:20.4420,0.13008659021056043,-1.0021899362538709,0.12970090693111208,0.26348635337845816,0.22993822218658988,0.11442845325039194,0.5662618297360857,0.10088644714261012,-0.8147744414930255
2022-12-06 15:33:20.4520,0.1438869601394087,-1.0006997960162944,0.13875458822421757,0.1899203548597967,0.23141069540574308,0.07584077973513446,0.5718297467344685,0.07005676158234121,-0.8193562109722025
2022-12-06 15:33:20.4620,0.15433086267568596,-1.0001645309049296,0.1468784825368704,0.14423654267075497,0.24077898413240045,0.045049067227388405,0.5778980010388169,0.04068488227817474,-0.8230460695752104
2022-12-06 15:33:20.4720,0.16046203779307164,-1.0010118068594642,0.15388796865753898,0.13568392116635927,0.2620405416011402,0.024100191531455224,0.585041089768947,0.014313526012457792,-0.8270117523838423
2022-12-06 15:33:20.4820,0.16136364125952604,-1.0036912571358185,0.1596398011222618,0.17364933510867106,0.2994932577853299,0.014859815509511844,0.5939405704163596,-0.0074741163932525645,-0.8325968897839461
2022-12-06 15:33:20.4920,0.15623227655000566,-1.0086605971605205,0.1640493776642478,0.26695667450253485,0.35764637633417157,0.018838403701675947,0.6053826047261073,-0.023142987744622066,-0.8413029798969714
2022-12-06 15:33:20.5020,0.1444516149302331,-1.0163682316089049,0.16710316287749,0.4231420822920517,0.44108642522895924,0.037046128472899086,0.6202371618588642,-0.03131378670905575,-0.8547560226766515
2022-12-06 15:33:20.5120,0.12566187849463797,-1.027233667865269,0.16886563988343464,0.6477431253573682,0.5543150811141515,0.06989133916620856,0.6394145719936184,-0.03088363765661076,-0.8746574860566043
2022-12-06 15:33:20.5220,0.09982141073538096,-1.0416264198270504,0.16948005824965098,0.9436409980682441,0.7015685970967844,0.117122466385659,0.6638028011902684,-0.021148253272312467,-0.902720782590338
2022-12-06 15:33:20.5320,0.0672572800953174,-1.0598443361603114,0.16916123450074538,1.3104910215776304,0.886626120095713,0.17782353094919107,0.6941948188435295,-0.001914720386160971,-0.9405937602145483
2022-12-06 15:33:20.5420,0.028700686780786466,-1.082092108613069,0.16817943575151087,1.7442732630487403,1.1126153856537766,0.25048125339508515,0.7312153575509098,0.0264006159186731,-0.9897680755013828
2022-12-06 15:33:20.5520,-0.014697684087692345,-1.1084579740673932,0.16683658475325067,2.237009300363233,1.3818130006436926,0.3331265997526483,0.7752531909801894,0.06269124029750066,-1.0514816701743186
2022-12-06 15:33:20.5620,-0.06137346522999154,-1.1388835033215574,0.16543689039948803,2.7766814732308136,1.6954012911015781,0.4235339342031173,0.8264042065416443,0.10510268376670666,-1.1266242063076897
2022-12-06 15:33:20.5710,-0.10937353666757017,-1.1731260303262152,0.16425274517873176,3.347347645185584,2.053133245896494,0.519463696732952,0.8844313868027572,0.15101236675971813,-1.215649966308932
2022-12-06 15:33:20.5820,-0.15640231890122067,-1.2107264324174625,0.1634859566715654,3.9294377365890747,2.452944254571453,0.6189512165870331,0.9487455285272378,0.1970681172549315,-1.318494765659192
2022-12-06 15:33:20.5920,-0.1999011757356882,-1.2510017924170356,0.16322652364277773,4.500285029045784,2.890678497827987,0.7206421672580314,1.0184034166723974,0.23931202572545204,-1.4344930885943483
2022-12-06 15:33:20.6010,-0.23718011932489833,-1.2930705262993976,0.16341592493393833,5.035038417329164,3.3601002064334273,0.8241414994429853,1.0921121729798526,0.27342040139176127,-1.5622989761363033
2022-12-06 15:33:20.6110,-0.26561797647969776,-1.3358966045477976,0.16382677363187834,5.5081473611342355,3.853185029916503,0.9302927585910316,1.1682262168301287,0.29508304310890093,-1.699822966779227
2022-12-06 15:33:20.6220,-0.2829263941411997,-1.3783316477717236,0.16407284442905887,5.895522293107814,4.3605055386707186,1.0412650103856143,1.2447288821980975,0.30051820388028416,-1.8442013265721449
2022-12-06 15:33:20.6310,-0.2874410944650419,-1.4191446539974082,0.16366054558170903,6.177211573192571,4.871526039837961,1.1603191177480887,1.3191997665801158,0.2870790823361549,-1.9918079704407323
2022-12-06 15:33:20.6420,-0.27838205961145107,-1.4570409694741566,0.16208234652010492,6.340135208403715,5.374761375654612,1.2911775157724532,1.388777822133229,0.25386568181082425,-2.138305826219416
2022-12-06 15:33:20.6520,-0.2560257044635585,-1.4906700133403241,0.1589351935746347,6.38028472495334,5.857826931068536,1.437051176880333,1.4501400727074574,0.2022240836601837,-2.278722119920207
2022-12-06 15:33:20.6620,-0.22174970660602072,-1.518613910040457,0.15402962067684464,6.303887449746393,6.307348666644009,1.5995543490524964,1.499526717292973,0.13600467629547172,-2.4075289472190606
2022-12-06 15:33:20.6720,-0.17793431298360116,-1.539354115330344,0.14744729429283193,6.12723744965958,6.70866121496408,1.7778797205462542,1.5328500934426463,0.061471235792143905,-2.5187202613811515
2022-12-06 15:33:20.6820,-0.12772912363387393,-1.5512340765242807,0.1395146649441936,5.87513529452405,7.045337147055913,1.9686261994814753,1.5459196736010103,-0.013192205157911762,-2.6059009412793497
2022-12-06 15:33:20.6920,-0.07471581683990168,-1.5524602355472201,0.1306933512005188,5.578127405634528,7.298829981559453,2.1664895728788456,1.5347941011788893,-0.0787489680307067,-2.662435873447695
2022-12-06 15:33:20.7020,-0.022501813242136636,-1.5411945569891803,0.12143608469534284,5.268900367528095,7.448721595624376,2.365628785152716,1.4962352572339253,-0.12604001555266442,-2.681722999767328
2022-12-06 15:33:20.7120,0.025729059196494892,-1.5157787785498744,0.11209385306400604,4.978157429319246,7.474093250803227,2.561052537523393,1.428190362627573,-0.14720040249639707,-2.657626076697381
2022-12-06 15:33:20.7220,0.06766840874534141,-1.475086578405992,0.10294532760533685,4.730247789063651,7.3563024928153995,2.7491555832091654,1.3301783240747547,-0.13676346508802023,-2.585026520332323
2022-12-06 15:33:20.7320,0.10224133984892503,-1.4189249901760226,0.09433592661879533,4.5391171401595,7.08288291188476,2.9269404694434615,1.2034434301073547,-0.09250107938256304,-2.4603673590623187
2022-12-06 15:33:20.7420,0.12973602872538237,-1.348334907916016,0.08681826960587458,4.40571945404293,6.651485962429619,3.090432016649912,1.0508014729813207,-0.015934979565267283,-2.2820355131211536
2022-12-06 15:33:20.7520,0.15162564727207556,-1.265640474628591,0.0811759050164686,4.318105266430895,6.072254954162943,3.2335098038425616,0.8762187902533697,0.08751810033663343,-2.0504991671521
2022-12-06 15:33:20.7620,0.1701343413327264,-1.1742019403110096,0.07829939883339697,4.254488215266426,5.367410406688711,3.348075743668626,0.6842550803043612,0.20886183230076255,-1.768227641450631
2022-12-06 15:33:20.7720,0.18770047251861685,-1.0779708094251832,0.07897564029922263,4.18828875067824,4.568129685412733,3.425497417062943,0.47952098220805467,0.33640160605679514,-1.4394781916379202
2022-12-06 15:33:20.7820,0.20649500694977807,-0.9810148580291997,0.08368068023534195,4.093495830829466,3.7100677848624266,3.4585856126741303,0.26626959218293517,0.45715038251594564,-1.0700213696183347
2022-12-06 15:33:20.7920,0.22808918210152643,-0.8871347161221781,0.09244689095499833,3.948970775699465,2.8291029896399666,3.44329736112438,0.048177180426085514,0.558501006051198,-0.6668385024863257
2022-12-06 15:33:20.8020,0.2532924231555355,-0.7996033646967554,0.10483443452218397,3.7410469276985845,1.9581658186540238,3.3796331006885914,-0.17171154151697074,0.6298050346003038,-0.23778550196898138
2022-12-06 15:33:20.8120,0.2821287991868758,-0.7210056907998256,0.11999140034923107,3.4644543206007823,1.125192899305012,3.2716123290289687,-0.39094341461629767,0.6635769597779182,0.20880784477828315
2022-12-06 15:33:20.8220,0.3138992232461363,-0.6531504878727483,0.1367614199517155,3.1220174603415867,0.3519133193136288,3.1265961292860136,-0.607566625319207,0.6562101515161866,0.6646113344757205
2022-12-06 15:33:20.8320,0.3472880188585786,-0.597046329569625,0.15380684204128403,2.7236556335340376,-0.34675171504129615,2.9543389207453905,-0.8199843626349864,0.6082195676034492,1.121780493879646
2022-12-06 15:33:20.8420,0.38049887564426943,-0.5529533033421402,0.1697427796958769,2.285021545629718,-0.9626740905523824,2.765962795235427,-1.026743110586039,0.5240625526877678,1.573345349652673
2022-12-06 15:33:20.8520,0.4114253686084212,-0.5205250688203666,0.18329249095131855,1.8258613854342678,-1.4937231670407747,2.5727972116146605,-1.2262959054031624,0.41157389474067907,2.0134134112972975
2022-12-06 15:33:20.8620,0.4378664554608759,-0.49903010407351994,0.19346280302162167,1.3680342202398792,-1.9421030510693595,2.384972840963566,-1.4168259952146296,0.2810569061453762,2.437172449523995
2022-12-06 15:33:20.8720,0.45778750405158986,-0.4876052081235398,0.19971127081177062,0.9331318616374062,-2.3120631392604865,2.209852454563547,-1.596210721045948,0.1441189190237175,2.840748438250033
2022-12-06 15:33:20.8820,0.46960619785917596,-0.48547782257951727,0.20206095498497167,0.539776940717274,-2.6075356450508855,2.0506361277586045,-1.7621555144088163,0.012390924761720294,3.2210075636956996
2022-12-06 15:33:20.8920,0.47245861253695365,-0.49210500726509326,0.2011285038303896,0.20089349844235224,-2.8303120186415067,1.9055494040273613,-1.9124702850480275,-0.10370622116161153,3.5753872666911586
2022-12-06 15:33:20.9020,0.46638569934694013,-0.5072026496572574,0.19805575684898233,-0.07855346917669294,-2.979188348550734,1.7678629937313604,-2.045419588175228,-0.19599717294897856,3.9018077250903205
2022-12-06 15:33:20.9120,0.45238552572906654,-0.5306664099986896,0.1943551179002191,-0.3027798049162893,-3.0502397548957054,1.6267646121709818,-2.1600550031228782,-0.2592740087541802,4.198666026147289
2022-12-06 15:33:20.9220,0.432304122792187,-0.5624117685835488,0.19168931924841012,-0.4849360113225891,-3.038109847302406,1.46895732762717,-2.2564298089159904,-0.29164022128132566,4.464872464224058
2022-12-06 15:33:20.9320,0.4085761311647075,-0.60217727158731,0.19161451758702897,-0.645289130082551,-2.9379637667832377,1.2807816950906785,-2.335607644834376,-0.2944580110807447,4.69986920307389
2022-12-06 15:33:20.9420,0.38385913895374113,-0.6493347235846217,0.19532456016323446,-0.8080945737568243,-2.747642644169004,1.0505768411064875,-2.399414786873674,-0.2719140067036842,4.903578052937248
2022-12-06 15:33:20.9520,0.36062268291023414,-0.7027388604728064,0.20343789201078843,-0.9976811215064895,-2.4696149886090204,0.770921881255775,-2.4499462391906066,-0.23025426923342743,5.076246891768077
2022-12-06 15:33:20.9620,0.340754664216026,-0.7606431980827643,0.21586710629447256,-1.2343690071794422,-2.1124277559964133,0.4403832799817154,-2.4889085049532564,-0.17678806866302726,5.218191481682719
2022-12-06 15:33:20.9720,0.3252451185449439,-0.8207138043335646,0.23181137028848633,-1.5308181137108168,-1.6913746059619343,0.06439372648209918,-2.5169538428388614,-0.11881032421781659,5.329453773831232
2022-12-06 15:33:20.9820,0.31401134920568424,-0.8801762490057865,0.2499058249978896,-1.8893887129069626,-1.2280380652405172,-0.34513380848131475,-2.5332059897520955,-0.0626215947518943,5.409419512113752
2022-12-06 15:33:20.9920,0.305931560695727,-0.9361115429431793,0.26852475099099155,-2.301155582462154,-0.7483955315384643,-0.7717286496175357,-2.535155723010882,-0.012813847474461609,5.456460994510965
2022-12-06 15:33:21.0020,0.2991268346429221,-0.985862656854777,0.28616570256388624,-2.747175763917058,-0.2795024705035409,-1.1975997440922541,-2.519000009355282,0.028064123568681005,5.467692085609952
2022-12-06 15:33:21.0120,0.2914559379272333,-1.0274456042722406,0.3017871925474237,-3.2021728029033896,0.15460936891352292,-1.6072695726033708,-2.480352814415719,0.05943005147923478,5.438926042519335
2022-12-06 15:33:21.0220,0.28109316191555195,-1.0598288879835003,0.3149826121662594,-3.639938894220242,0.5366015559155177,-1.9903404999495438,-2.4151406742731623,0.08223201434214071,5.3648967992713175
2022-12-06 15:33:21.0320,0.2670079125759665,-1.0829858844613156,0.3259445284205822,-4.038920290135617,0.8578060080732391,-2.3424671588710737,-2.320456593565976,0.09827053061400176,5.239748453220399
2022-12-06 15:33:21.0420,0.24919480527710383,-1.0977167789350586,0.3352595483691344,-4.386231615987369,1.117887225281691,-2.664403547574557,-2.1951825386455885,0.10944050215700289,5.057745942863672
2022-12-06 15:33:21.0520,0.22859544548675545,-1.1053271462641618,0.34362653129171467,-4.678920651289628,1.3225281455901037,-2.9597444006568,-2.0402740366497776,0.11707118007386039,4.814132556600498
2022-12-06 15:33:21.0620,0.20675400306306174,-1.1072960134937386,0.3515906463423702,-4.9223044246853815,1.4802360361474196,-3.2322959414026506,-1.8586893571377054,0.12152327193588527,4.506044535086025
2022-12-06 15:33:21.0720,0.18531760598861546,-1.1050519984989147,0.3593539350132565,-5.126090896258604,1.599591152651155,-3.4838516769653376,-1.6550173836486408,0.12214160015148914,4.13336759768547
2022-12-06 15:33:21.0820,0.1655212906902795,-1.0999121355778534,0.36669536213743836,-5.2995153652707945,1.6879062238830322,-3.7128287963459607,-1.434915206752279,0.11756149776865471,3.699391288227368
2022-12-06 15:33:21.0920,0.14779267220157408,-1.093155554230447,0.37301562781566183,-5.4468617673088975,1.7515145984046703,-3.9140144854952497,-1.204506073564338,0.10624702622920396,3.211118506102997
2022-12-06 15:33:21.1020,0.1315777079750651,-1.0861442624134576,0.37749398139379925,-5.564575915504407,1.797124004487322,-4.07949510116039,-0.9698857588620413,0.08704696039220752,2.679141507935275
2022-12-06 15:33:21.1120,0.11542867044804757,-1.0803931887908769,0.3793028423991272,-5.640738852421934,1.833245683103123,-4.200505920572134,-0.736823258523334,0.05955115984166116,2.1170845403231437
2022-12-06 15:33:21.1220,0.09732186892694357,-1.0775265247592123,0.3777989709437973,-5.657007711139796,1.8707978095675368,-4.269542200669479,-0.5106425892823917,0.024135952010939706,1.5406945972897843
2022-12-06 15:33:21.1320,0.07511502116411971,-1.0791074130676104,0.3726248878102813,-5.5924378573243105,1.9224229491399514,-4.281937735944885,-0.2961901840731027,-0.018257396518181215,0.9667062227129286
2022-12-06 15:33:21.1420,0.047041912929653845,-1.0863686699165083,0.3637058804072881,-5.428189401215299,2.000537506237252,-4.23642111801936,-0.09777199785789215,-0.06646137629613619,0.41161565609665374
2022-12-06 15:33:21.1520,0.012173390178991017,-1.099903539411032,0.35118145362034375,-5.152196824664228,2.114493883261623,-4.134716489329958,0.08100808921974753,-0.11938268938554515,-0.10950844672025886
2022-12-06 15:33:21.1620,-0.029189864384957014,-1.1194030944483335,0.33533519898084657,-4.763270500448295,2.267541517958581,-3.980700071524693,0.23749231468233653,-0.17617480699924148,-0.5840603890959895
2022-12-06 15:33:21.1720,-0.07522567804423115,-1.1435378760125723,0.31657762462265004,-4.274367705739256,2.45451869609606,-3.7797448633270805,0.37020220476593896,-0.23626786458075869,-1.0026653213336705
2022-12-06 15:33:21.1820,-0.12246986510927788,-1.1700556143205958,0.295500681955022,-3.7146327659896525,2.661206873710743,-3.5386925122533897,0.4789376951024775,-0.2992793637380163,-1.359573178771582
2022-12-06 15:33:21.1920,-0.16597813342731446,-1.1961046824946948,0.27297568724469123,-3.1293792053293292,2.8658834484785105,-3.2664853618107874,0.5646511960488361,-0.36482488151072473,-1.6526083587059384
2022-12-06 15:33:21.2020,-0.19988010324397143,-1.2187208224357555,0.25022628481902603,-2.576890687296227,3.0429269987471073,-2.975038675764527,0.6290830629982427,-0.4322367642012925,-1.8826761481888687
2022-12-06 15:33:21.2120,-0.21835734186075142,-1.2353611462848146,0.22878313516818613,-2.1211836038880376,3.1676678119929953,-2.6795850702453268,0.6742544592446733,-0.5002309174515575,-2.0529137024940662
2022-12-06 15:33:21.2220,-0.21691576842542235,-1.2443421880162713,0.2102396847823042,-1.8209454476011833,3.2212431740654166,-2.3975593609009063,0.7020378802734197,-0.5666394409123088,-2.1676839695705596
2022-12-06 15:33:21.2320,-0.19362040560274757,-1.2450471680550503,0.1958376633199694,-1.716668369692439,3.1940406710300793,-2.145490801812417,0.7140523249640937,-0.6283574916215735,-2.2317373308408226
2022-12-06 15:33:21.2420,-0.14984114054290215,-1.2378426668512432,0.18608896968294011,-1.8198289647962127,3.0865829297334786,-1.9348036522541066,0.7119310977802457,-0.6815591062725314,-2.249859283375701
2022-12-06 15:33:21.2520,-0.09016377090500317,-1.223780342714999,0.18068569654120525,-2.10840893746498,2.9077069530853037,-1.7689524876189515,0.6977079089537656,-0.7221233155754886,-2.227045035709172
2022-12-06 15:33:21.2620,-0.021449125394566792,-1.204261087348429,0.17874586963469083,-2.531079824585415,2.671242111527533,-1.6438407899165697,0.6739760559017034,-0.746218478187391,-2.168874416716966
2022-12-06 15:33:21.2720,0.048622640014893026,-1.1808094640202205,0.17919667654965035,-3.0188004777535222,2.3929852833360084,-1.550977981147974,0.6436849827088039,-0.7510232717619911,-2.0816631403005403
2022-12-06 15:33:21.2820,0.11302218210522412,-1.1549729131131656,0.18106894206480195,-3.4996552004916017,2.0889970382217755,-1.4810540962191716,0.6097049563902329,-0.735459642194198,-1.9722150321024787
2022-12-06 15:33:21.2920,0.1664355621807947,-1.1282595115954344,0.18362600033762155,-3.9121083086031576,1.7748869411336794,-1.4261898845274787,0.5743857234196221,-0.7006768487945785,-1.847315989331834
2022-12-06 15:33:21.3020,0.20572731709629236,-1.1020469201284706,0.18636699620344505,-4.213312323037748,1.4651768491625077,-1.380665909041412,0.5392741747074014,-0.6500572543799308,-1.7132272911057584
2022-12-06 15:33:21.3120,0.22983838223683384,-1.077478031946222,0.1889577130751796,-4.381455848361704,1.1723691126233273,-1.340659097776549,0.505062131490043,-0.5886998031069774,-1.575349146060055
2022-12-06 15:33:21.3220,0.23930801431398888,-1.0553988949234059,0.19112736376157213,-4.413174069052566,0.9060979659873177,-1.3034306757730516,0.47175861945174014,-0.522511897981575,-1.4380944635240627
2022-12-06 15:33:21.3320,0.23566069431252892,-1.0363620260814443,0.19257360653858638,-4.318162004923046,0.6728466736825996,-1.2663301931660436,0.43901240576468736,-0.45712585954965684,-1.3049410548286327
2022-12-06 15:33:21.3420,0.22086837383493227,-1.0206654597739009,0.19291270552822481,-4.1133067795506095,0.4762417867415583,-1.2260314012547497,0.4064660024892455,-0.39688518593650574,-1.1786013016976096
2022-12-06 15:33:21.3520,0.19701274200072727,-1.0083820952238165,0.19168318237673343,-3.8181252056753427,0.31751048739914406,-1.178269623188531,0.37403467257024386,-0.3441401273896855,-1.0612252241783349
2022-12-06 15:33:21.3620,0.16616358613446552,-0.9993639564218079,0.18839034883756947,-3.4523327096980667,0.19572359318928578,-1.1180576147202725,0.3420621389781112,-0.2990255200585786,-0.9545501359773465
2022-12-06 15:33:21.3720,0.1303992674688435,-0.9932456591165707,0.18258515448821452,-3.0353290097336,0.10783288895527825,-1.0402534467760072,0.3113548097631588,-0.259761682686838,-0.8599493584660154
2022-12-06 15:33:21.3820,0.09185915205456067,-0.9894826010995976,0.17398029392055206,-2.58667686450119,0.04882730762688424,-0.9404690542884971,0.2831066951084783,-0.2233745714300333,-0.778391547496598
2022-12-06 15:33:21.3920,0.052740777953168956,-0.9874366589287137,0.1625904880536795,-2.1265256190916606,0.012304920075887375,-0.8163287734776459,0.25872056630350704,-0.1866362196866773,-0.7103597005917363
2022-12-06 15:33:21.4020,0.01521105012964986,-0.986488226579866,0.14884901787438182,-1.6753144029732223,-0.008540350037171433,-0.6688331002355965,0.23954398291961593,-0.14699570269639764,-0.6557813249852908
2022-12-06 15:33:21.4120,-0.018744986096685717,-0.9861347493472045,0.13363430883946084,-1.2526705211639482,-0.019821044510009163,-0.5032575631770164,0.2265739610374066,-0.10328557652101199,-0.6140046961358544
2022-12-06 15:33:21.4220,-0.04748846666143032,-0.9860430199946598,0.11816512941743085,-0.8758653067384099,-0.02613998582713978,-0.3289791549414445,0.22021237832122795,-0.05604363530996921,-0.5838381328023132
2022-12-06 15:33:21.4320,-0.06986193783977755,-0.9860456359792097,0.10378220214149644,-0.5583139080652668,-0.030298663051402053,-0.1580177019164106,0.2201492736636452,-0.007390011804140962,-0.5636541226218567
2022-12-06 15:33:21.4420,-0.08527612521247839,-0.9860943311469451,0.0916891307658752,-0.30845007931929097,-0.033530652506175596,-0.0026908688087982076,0.22541015756060384,0.03947744043029858,-0.5515463059978778
2022-12-06 15:33:21.4520,-0.09374447061867952,-0.9861951959222712,0.0827392035717703,-0.1290875031630693,-0.036074294413450364,0.12680459926947918,0.23454726162580128,0.08100732199159838,-0.5455166349301418
2022-12-06 15:33:21.4620,-0.0958607174707784,-0.9863519767147925,0.0773245991491622,-0.017289333947417145,-0.037822291568931694,0.22411832718681216,0.2459123945074362,0.11403665481204057,-0.543665853624215
2022-12-06 15:33:21.4720,-0.09270827114415063,-0.9865359045089445,0.07538099743118923,0.0351794921321372,-0.03881137284965331,0.28739140555306475,0.25793532150800613,0.13637664353588808,-0.5443606452866626
2022-12-06 15:33:21.4820,-0.08569688878419456,-0.986688308345568,0.07648753285532951,0.04070769751774219,-0.03941220997278109,0.318832034437794,0.26934198090445044,0.14714045832941103,-0.5463516335038672
2022-12-06 15:33:21.4920,-0.07634729157449423,-0.9867498046749513,0.08002099109061336,0.01403032171812636,-0.04020357877810667,0.32350387659477126,0.2792728282142302,0.1467898765661173,-0.5488216301690122
2022-12-06 15:33:21.5020,-0.06607122156716307,-0.9866993338639498,0.08531364234546994,-0.029936078757581405,-0.04163321191936633,0.3077735730859302,0.2872954632320571,0.1369394244625647,-0.5513586848568254
2022-12-06 15:33:21.5120,-0.056003341840717556,-0.986581406631175,0.09177077463330469,-0.07809576353966728,-0.04365733925333026,0.27790153563888065,0.2933363073632711,0.11999929787184861,-0.5538698463184283
2022-12-06 15:33:21.5220,-0.04692620404133453,-0.9865055096603376,0.0989246658085965,-0.12049501990918196,-0.045565051238658054,0.23913811825883705,0.29757322823395793,0.09876126443178501,-0.5564685865079017
2022-12-06 15:33:21.5320,-0.03929808497744525,-0.9866166742607232,0.10642657034407334,-0.1506624872476525,-0.0460973155807874,0.1954590824167374,0.30033092377280945,0.07602905794681432,-0.5593740358044281
2022-12-06 15:33:21.5420,-0.03335938999414504,-0.9870510267395275,0.11399752268488027,-0.16499998600031343,-0.04380944957593013,0.14984274927131525,0.3020062798081847,0.05436312597470832,-0.5628522595444343
2022-12-06 15:33:21.5520,-0.029269385342882037,-0.9878943575159393,0.12136669654230212,-0.1615623993365454,-0.03751170199558438,0.10484183457856212,0.3030304238438933,0.0359561844554936,-0.5672118281761513
2022-12-06 15:33:21.5620,-0.027218812092548336,-0.9891548723224023,0.12822292547079697,-0.13873892792104733,-0.02662818668330549,0.06317045877023515,0.3038579256513798,0.022602111203126975,-0.5728440303109142
2022-12-06 15:33:21.5720,-0.027476451747537264,-0.9907524869666311,0.13419515466097515,-0.09433975108968634,-0.01140014209149671,0.028088008912088177,0.30496653407237007,0.01569169018496792,-0.5802803851249371
2022-12-06 15:33:21.5820,-0.03035453530315377,-0.9925233117939539,0.13886560409543908,-0.02541284689944498,0.007070402351381364,0.0034700556700084945,0.30685272706549377,0.01617550275452757,-0.5902331737892723
2022-12-06 15:33:21.5920,-0.03610992265630002,-0.9942373507038311,0.1418091887516161,0.07117489902703954,0.02692020534678771,-0.0064284599526306056,0.31001606330706377,0.024468575874787537,-0.6035908343310825
2022-12-06 15:33:21.6020,-0.044823017091303104,-0.99562634574244,0.1426471452133338,0.1976587107155116,0.04574416229247105,0.0025721791212261497,0.3149339865059002,0.04031560809208455,-0.6213576440285662
2022-12-06 15:33:21.6120,-0.056303401070924235,-0.9964183831042018,0.1411019222173216,0.3542552713340059,0.060900724351932826,0.034029327632383366,0.3220344135034068,0.06267090891232707,-0.644549827465127
2022-12-06 15:33:21.6220,-0.07005667187106972,-0.9963771173449668,0.1370424404554493,0.5384467714741029,0.06987495059887487,0.09035938556698526,0.33167518397567813,0.0896600972116578,-0.6740773241917866
2022-12-06 15:33:21.6320,-0.08531907733586379,-0.9953432192454456,0.13051277326527833,0.7449116101469055,0.07068060157243718,0.1724424788875206,0.34413834448750263,0.11867839349988696,-0.7106431744659008
2022-12-06 15:33:21.6420,-0.10114103068043685,-0.9932731037193466,0.12174278257331189,0.9660621325253052,0.062268188056848583,0.27940147440128943,0.35964339558399194,0.14664826915108936,-0.754680836469381
2022-12-06 15:33:21.6520,-0.11648884015292717,-0.9902687365048074,0.11114377953224051,1.1929440729402538,0.044881574429452724,0.4085516145194322,0.378376355801506,0.17041491007066678,-0.8063316885647123
2022-12-06 15:33:21.6620,-0.13033602396247085,-0.9865936589582679,0.0992915475370868,1.4161931895865512,0.0203056026502567,0.5554873144765725,0.40052483180379805,0.1872129425951827,-0.8654499414856313
2022-12-06 15:33:21.6720,-0.1417262627039413,-0.982671499044112,0.08689512151316559,1.6268010131923698,-0.008037155640718724,0.7142996109106793,0.42630964923930637,0.1951091389845373,-0.9316153104800521
2022-12-06 15:33:21.6820,-0.14980676969030757,-0.9790638799604634,0.07475133810602103,1.8165703671487041,-0.03517597365447155,0.8779459956756835,0.45600907080089437,0.19332723113285882,-1.004135747878465
2022-12-06 15:33:21.6920,-0.15384955022119273,-0.9764284820006685,0.06369233870468881,1.9783211366856606,-0.05488870313710263,1.0387490294286212,0.489974155342614,0.1823909952600492,-1.0820335020586938
2022-12-06 15:33:21.7020,-0.1532880858783193,-0.9754655523778115,0.054535232642995736,2.106072472537613,-0.06017170921137143,1.188932520310067,0.5286313709665303,0.16406397731728284,-1.164025730033655
2022-12-06 15:33:21.7120,-0.14778955012528028,-0.97686670826609,0.04803603810736795,2.195466841651224,-0.04377477290381103,1.3211168298158602,0.5724664260893313,0.14110291430634553,-1.2485264080138703
2022-12-06 15:33:21.7220,-0.13736150402423092,-0.981277878068984,0.04484183709394252,2.244569478424539,0.0013369820621547237,1.42878047413928,0.6219859092961371,0.11687255428937708,-1.3336986484529731
2022-12-06 15:33:21.7320,-0.12246942996159096,-0.9892797453884179,0.04543465085369295,2.2549536728497044,0.08168387346892908,1.5067562663553224,0.6776601622869214,0.0948928311690618,-1.417574978025849
2022-12-06 15:33:21.7420,-0.10412653521184347,-1.001380193263097,0.0500674847578675,2.2327825536324566,0.20313394794794373,1.5518041919343066,0.739858421751859,0.07840232345190398,-1.498244492271176
2022-12-06 15:33:21.7520,-0.08391416554925188,-1.0180083469976944,0.058699724440301894,2.189488146160843,0.3708512885992239,1.5632288027239316,0.8087920330305952,0.07001650216181494,-1.5740852411264261
2022-12-06 15:33:21.7620,-0.06390264201584563,-1.0394995033773773,0.07094167563787479,2.141665337120669,0.5892230469123358,1.5434601823043892,0.8844805777961526,0.07152930540473337,-1.64400173459296
2022-12-06 15:33:21.7720,-0.046466727400353104,-1.0660646924361958,0.08601964368544254,2.109960502594796,0.8616704777658293,1.4985019753015416,0.9667483420878983,0.0838600565915852,-1.7076187546719865
2022-12-06 15:33:21.7820,-0.03401757973521489,-1.0977470176319866,0.10277663398802753,2.1169974603210124,1.1903097562412035,1.4381262390563938,1.055246746326063,0.10710450465827069,-1.7653903272214968
2022-12-06 15:33:21.7920,-0.02869069082427913,-1.1343747678163356,0.11972632823723874,2.184629722928966,1.5755144493164495,1.3756540229442273,1.1494865705265063,0.14062339247027422,-1.818602667696595
2022-12-06 15:33:21.8020,-0.03203117151586457,-1.1755245564634036,0.1351727144855203,2.330921507365444,2.015491614469385,1.3271560622496699,1.2488573811509693,0.18309806459089362,-1.869267838015248
2022-12-06 15:33:21.8120,-0.0447123763261545,-1.2205081273236527,0.14739425876611387,2.5672350013553746,2.505999643453781,1.309992851557992,1.3526131739733736,0.23250177129914604,-1.9199112377677516
2022-12-06 15:33:21.8220,-0.06632411080543633,-1.2683965873936263,0.15487583076041156,2.8957582513402254,3.040339093552877,1.3407595424453667,1.4598113177585101,0.28597864258378725,-1.9732584489751186
2022-12-06 15:33:21.8320,-0.09527269072946554,-1.3180907314016874,0.15655677477577012,3.3078428894475347,3.6097384532618233,1.4328523296456825,1.5692035862187885,0.3396780012737708,-2.031839273489289
2022-12-06 15:33:21.8420,-0.12883308793999126,-1.368428541762685,0.15205154667907303,3.78357302384525,4.204163977224121,1.594013553896553,1.6790905468168318,0.38863467268328133,-2.0975523321692773
2022-12-06 15:33:21.8520,-0.16337040595597205,-1.4182970187412083,0.14179526656136535,4.292899571654212,4.813372148502351,1.8243117886722025,1.7871606025106175,0.42680163163937146,-2.1712611133235953
2022-12-06 15:33:21.8620,-0.19470903539932044,-1.4667044072371183,0.1270733765718224,4.79837225541736,5.427816937924197,2.115019945701093,1.8903417482853013,0.4473322122651499,-2.2524987518886657
2022-12-06 15:33:21.8720,-0.21859724933974126,-1.5127816589112622,0.10991207021705929,5.259119550413367,6.039005084453278,2.448751551557774,1.9846988785679134,0.4431743369742885,-2.3393276914002645
2022-12-06 15:33:21.8820,-0.23121047924986865,-1.555708235814586,0.09282963495747895,5.635516594057013,6.639092680179877,2.8010179814422034,2.0654119721576594,0.4079696793831081,-2.4283448085396833
2022-12-06 15:33:21.8920,-0.22964767470798264,-1.5945774336014484,0.07846967352736922,5.894019230386359,7.219773764907858,3.1431419175254707,2.126870902034171,0.3371470395321134,-2.5147762154914393
2022-12-06 15:33:21.9020,-0.21237826927542092,-1.6282243188555612,0.06915530919989338,6.0117460696702505,7.770659304818613,3.446272529415624,2.1629239464051624,0.22899779144922405,-2.5926038805828613
2022-12-06 15:33:21.9120,-0.17958025944744574,-1.655050090397747,0.06643281308143736,5.980354930716113,8.277409358094719,3.6860394689922242,2.167314246876579,0.08548572125272638,-2.6547262689025
2022-12-06 15:33:21.9220,-0.1332773080686733,-1.672907392957756,0.07072041473246424,5.808532364236721,8.720051644655134,3.847009901521835,2.1343041083928362,-0.08740378378733824,-2.6932399016224062
2022-12-06 15:33:21.9320,-0.07716191998838247,-1.679150982845384,0.08120481357582421,5.52210541022673,9.072296173564675,3.9256396324669205,2.059399440740003,-0.27987233026548597,-2.6999492361243482
2022-12-06 15:33:21.9420,-0.016038291608110114,-1.6709512798062243,0.09606022779613183,5.1607698288538115,9.302957368366416,3.930409162941583,1.939994602296562,-0.479072529418741,-2.6671183261328277
2022-12-06 15:33:21.9520,0.04503750997124258,-1.6458599544398804,0.1129061393313412,4.771252848027848,9.380172674118956,3.8789027260802147,1.77576035533466,-0.6703382903156173,-2.5883289807623737
2022-12-06 15:33:21.9620,0.10167476716035245,-1.6024521893241699,0.12930512453075843,4.398356332116018,9.277696799452157,3.7931655825832706,1.56871235079164,-0.838720944112678,-2.4592256506452834
2022-12-06 15:33:21.9720,0.15082208385994747,-1.5407903548543012,0.14313694685079487,4.076677871442834,8.981068424996348,3.695293825196872,1.3230214426558558,-0.9706069269170068,-2.2779689660864717
2022-12-06 15:33:21.9820,0.19100806015829494,-1.4625360549216628,0.1528056511447741,3.8257037669853053,8.49124915729735,3.604422812035681,1.044671497687606,-1.0551393847613662,-2.0453430516238487
2022-12-06 15:33:21.9920,0.2221550033219651,-1.3707072626799945,0.15732242871816535,3.6494096822404396,7.824608388451093,3.5351452851949423,0.7410531833644896,-1.085170440386343,-1.7645748747306647
2022-12-06 15:33:22.0020,0.24512942011169922,-1.2692121175644502,0.15633077094364103,3.539586166174468,7.009783405810019,3.4968214237735853,0.42055353487310676,-1.0575916414171236,-1.4409747919924945
2022-12-06 15:33:22.0120,0.2612427184941108,-1.1623358907207517,0.15013095758836636,3.4809289877405134,6.082963071718702,3.4931736315896984,0.09216254059222774,-0.9731136434563002,-1.0815023646772595
2022-12-06 15:33:22.0220,0.2718671336278187,-1.0543219709101637,0.13972473766100482,3.4558648542511827,5.08326642209604,3.521738733370406,-0.2349467250691532,-0.8357699707610116,-0.6943201238041621
2022-12-06 15:33:22.0320,0.2782345495255543,-0.9491068113049709,0.1268414864755091,3.4478184206197025,4.049322220445439,3.5731914615383116,-0.5519639623021504,-0.6524533690858598,-0.28833336349326205
2022-12-06 15:33:22.0420,0.28139107497429366,-0.8501853853323716,0.11385903937645941,3.4426423016605345,3.0172974736100264,3.631130119977463,-0.8511736975842806,-0.43262306213176194,0.12732965928906853
2022-12-06 15:33:22.0520,0.2822325865997486,-0.7605334678633654,0.10354218146417292,3.428735259144885,2.0198907406890836,3.673213480586903,-1.1267731391291924,-0.1880769432085829,0.5439075130671784
2022-12-06 15:33:22.0620,0.2815628477744736,-0.6825200452671831,0.09860473640808105,3.39659000734996,1.0855148330131927,3.67417521930752,-1.3755200746036549,0.06745363353232585,0.9535910472679922
2022-12-06 15:33:22.0720,0.2801568339105916,-0.6178019740159122,0.10120952513271753,3.3381808683828127,0.23720305196097993,3.6102750081447574,-1.5969591554753113,0.31907191574272403,1.3499995182246098
2022-12-06 15:33:22.0820,0.27882042689125724,-0.5672499317043175,0.1125705143240768,3.2462693605735353,-0.5085612328368905,3.4638279096864695,-1.7931349353430135,0.55184400250503,1.7284913735156031
2022-12-06 15:33:22.0920,0.2784145594442186,-0.5309571205615605,0.13277760537196936,3.1137822547791387,-1.1424949169764858,3.226308839795443,-1.9678872408098136,0.7521015142165408,2.086307124619459
2022-12-06 15:33:22.1020,0.2798059062099739,-0.5083403048332343,0.1608678202332367,2.9336439217289154,-1.6622401478460904,2.8992045580742154,-2.1259349150337683,0.9086542987276872,2.422552975574879
2022-12-06 15:33:22.1120,0.28373709978016703,-0.4983040460284592,0.19507944315047443,2.699371690581725,-2.0712226899249004,2.4927320322057156,-2.2719624479293317,1.0136897317918845,2.738025852153942
2022-12-06 15:33:22.1220,0.29065076074026525,-0.49942856335222546,0.23318402971455135,2.406370889184484,-2.3769989388906603,2.02322788203813,-2.4098616686396666,1.0632487410666116,3.0348802294624386
2022-12-06 15:33:22.1320,0.3005258867017796,-0.5101524439037699,0.27280027372914023,2.0535083152668747,-2.589461274130025,1.510214721945737,-2.5422022353099543,1.0572889739963225,3.316148660704822
2022-12-06 15:33:22.1420,0.3127865549983138,-0.5289365588468353,0.3116369951011927,1.6443883298237083,-2.7191348518618925,0.973907272662633,-2.669951384687802,0.9994235603860956,3.585150230757446
2022-12-06 15:33:22.1520,0.3263258995757126,-0.554402223583068,0.3476626646363145,1.187806974147396,-2.775672776855795,0.4334450632383808,-2.792443186724114,0.8964440262732598,3.8448514556698847
2022-12-06 15:33:22.1620,0.33965864868796286,-0.5854315428576017,0.3792287366290267,0.6970673612512382,-2.7666392362057923,-0.0942973591938797,-2.90759092419191,0.75771065234252,4.097270286407683
2022-12-06 15:33:22.1720,0.3511798759726968,-0.6212102269611383,0.4051671460208205,0.18814813775983194,-2.6967474231095725,-0.5956314812634583,-3.0123127063198853,0.5944509313509817,4.343019061202527
2022-12-06 15:33:22.1820,0.3594737706824151,-0.6611956822759398,0.4248470154349438,-0.32294117544850104,-2.567767298153203,-1.060810547817908,-3.1030848241614124,0.4189781251119761,4.581055112771865
2022-12-06 15:33:22.1920,0.36359428404343996,-0.7050080462195197,0.4381501880899608,-0.8229895420334602,-2.3792393766914124,-1.4843480789954633,-3.176477110643978,0.2438471377405938,4.8086502577396635
2022-12-06 15:33:22.2020,0.3632409263716255,-0.7522629284150796,0.445348971173968,-1.3038297726526507,-2.1299449802246264,-1.8645135406907247,-3.2295173272886535,0.08099794184898805,5.021524350248156
2022-12-06 15:33:22.2120,0.3587835794481445,-0.8023854317823639,0.4469353647910268,-1.7633468494176265,-1.8198590720375436,-2.2020328270165477,-3.2598078423270467,-0.059034635280574885,5.2140504699591705
2022-12-06 15:33:22.2220,0.35114375301166406,-0.8544579480635263,0.44349926394114014,-2.204989892534579,-1.4521199661337418,-2.498675174048204,-3.2654406306938513,-0.1677758541003607,5.379458544754157
2022-12-06 15:33:22.2320,0.34159435281892786,-0.9071526370663255,0.43572876978051966,-2.636088758102365,-1.0344696634949069,-2.7566529821210675,-3.2448468079707475,-0.23930965166914223,5.510030403618873
2022-12-06 15:33:22.2420,0.3315622366837907,-0.9587805883314655,0.4245205469834795,-3.065731345989416,-0.5796974198922034,-2.979258709627142,-3.196720331807781,-0.27064362956122306,5.597342601994603
2022-12-06 15:33:22.2520,0.322488412634866,-1.0074541842477733,0.41110998358692824,-3.502988591650287,-0.1048717187480683,-3.1722822802383184,-3.120083503942654,-0.26196364434059183,5.63262708826818
2022-12-06 15:33:22.2620,0.3157411535446436,-1.051318436619915,0.39711545244684554,-3.9558255263522475,0.37046467413569406,-3.345186609985981,-3.0144704368595536,-0.2167651754948605,5.6072832826949535
2022-12-06 15:33:22.2720,0.31253400723991176,-1.088783689389874,0.3844395829991183,-4.430455603155792,0.8265979086583517,-3.5111300465115916,-2.8801480563983777,-0.14181373086420088,5.51352472880223
2022-12-06 15:33:22.2820,0.31380127937709945,-1.1187017809912667,0.37504165981897714,-4.9306166921875825,1.245789816274886,-3.685540957580253,-2.7182935857725097,-0.04687606614409103,5.345111271255586
2022-12-06 15:33:22.2920,0.3200177748198372,-1.1404630464213428,0.37064074061147867,-5.456400151456021,1.6138221373430972,-3.8835974577033996,-2.531082189179499,0.05582547501384586,5.098109503584045
2022-12-06 15:33:22.3020,0.3309873520333154,-1.1540277799492358,0.3724131951770174,-6.002642471727251,1.920867481170619,-4.117253683611355,-2.3216712133565007,0.15246540970629271,4.771624166295681
2022-12-06 15:33:22.3120,0.3456436770692588,-1.1599230187613208,0.380736766933699,-6.55719972795895,2.1619076529576837,-4.392400268319379,-2.094084271692589,0.22878381827396832,4.368429480642323
2022-12-06 15:33:22.3220,0.36190599053256506,-1.1592313703194175,0.3950318270321022,-7.099521148589798,2.3369956161119245,-4.706662209313191,-1.853013461481508,0.27153741201254955,3.895395856941276
2022-12-06 15:33:22.3320,0.37663017649503183,-1.153580381333359,0.41375001637322906,-7.599893721111405,2.4515475768982196,-5.048358400899259,-1.6035807344961983,0.2701056947850869,3.3635783178598775
2022-12-06 15:33:22.3420,0.3857055793125409,-1.1451148644428784,0.4345355455436422,-8.019737435249443,2.516629713451247,-5.3970756291736235,-1.3511128331902547,0.21800276210331365,2.787848023983367
2022-12-06 15:33:22.3520,0.38436159832277517,-1.1364089836300484,0.4545331761877689,-8.313467470623324,2.5489285428782797,-5.7259447853264005,-1.1009631746910504,0.11397576781116797,2.186024311137987
2022-12-06 15:33:22.3620,0.36773477750088385,-1.1302671594597504,0.4707696285185722,-8.432520121885817,2.5698799060767215,-6.00516079888336,-0.8583618944779419,-0.037576253881629405,1.577575074674619
2022-12-06 15:33:22.3720,0.33168391319931173,-1.1293906415230612,0.4805251387611813,-8.331852193430533,2.603475966559743,-6.2059162508947185,-0.6282305446832084,-0.22697007989768264,0.9820478317341669
2022-12-06 15:33:22.3820,0.2737410861065603,-1.1359457794141155,0.48164186530719233,-7.978449518326851,2.6726892836776712,-6.303970307849755,-0.4149003418882584,-0.4403203752365538,0.4174376141850381
2022-12-06 15:33:22.3920,0.1940015171400551,-1.151129000895396,0.4727583659989367,-7.360403455384498,2.7950923660695404,-6.282450896142043,-0.2217304341362579,-0.6611439962352095,-0.10130659056510263
2022-12-06 15:33:22.4020,0.09573556313930473,-1.1748479000107606,0.45348564227443283,-6.4944902165518865,2.978749023407948,-6.1338810938401895,-0.050711195296254355,-0.8722477350716032,-0.563457800509277
2022-12-06 15:33:22.4120,-0.014445547450197826,-1.2056191068086004,0.42453760395919377,-5.430283227643846,3.219543872995556,-5.861598178888477,0.09778195937579622,-1.0576585406665773,-0.9631981452309326
2022-12-06 15:33:22.4220,-0.12697220877231793,-1.240738097237347,0.3877974428275482,-4.249447836234876,3.5008253360334285,-5.480622494465241,0.22488706945409723,-1.2043668496838407,-1.299632621852305
2022-12-06 15:33:22.4320,-0.23030679100245613,-1.2767138526997508,0.34624795455540264,-3.05945845271392,3.79574702975181,-5.017654597305879,0.33268166186056924,-1.303656727865457,-1.5759643530969334
2022-12-06 15:33:22.4420,-0.31255075866148035,-1.3098706794319959,0.30364251575705375,-1.9813454435090232,4.072006820414151,-4.5093285690606795,0.42325158062000295,-1.3517986206009103,-1.7978365652525665
2022-12-06 15:33:22.4520,-0.3635230065111698,-1.3369199571893344,0.26382734725512713,-1.1318357825720764,4.29768669194171,-3.997530855525218,0.4978476829680629,-1.3499503107834372,-1.9712415595572539
2022-12-06 15:33:22.4620,-0.37687447083104514,-1.3552980607612806,0.2298424099532089,-0.6022727138753516,4.446074657271552,-3.5215147235953763,0.5566600160371217,-1.3032983567164496,-2.100807006750533
2022-12-06 15:33:22.4720,-0.3515591812545388,-1.3632281190650364,0.20321032221062266,-0.4396308076530778,4.497853869469808,-3.1091630251083453,0.599340245246371,-1.2196963229314175,-2.1892166293753776
2022-12-06 15:33:22.4820,-0.2920777229886127,-1.359673465647528,0.1838134862730749,-0.6363384230213349,4.441031294983648,-2.77183214402843,0.6258467269593272,-1.1081981619487675,-2.2378458311304867
2022-12-06 15:33:22.4920,-0.20739023301749634,-1.3443897926344774,0.17036053788470223,-1.1330994960931347,4.270636213014359,-2.5055223978317183,0.6370380346913034,-0.9778830421291206,-2.247955539238221
2022-12-06 15:33:22.5020,-0.10893248375059866,-1.3181021722715613,0.16107329449691207,-1.833559271226824,3.9897386758784807,-2.296720934954751,0.6347600942955345,-0.8371806323209686,-2.2216601287254996
2022-12-06 15:33:22.5120,-0.008420678780120549,-1.2826203023655394,0.15424176943250867,-2.6252475330290124,3.6111794764870893,-2.1289203217236223,0.6215370959407345,-0.6936133622221085,-2.162331828018875
2022-12-06 15:33:22.5220,0.08395407510195234,-1.2406855537056538,0.14852617567214468,-3.400109854199746,3.1578378862595846,-1.9871724838429161,0.6001115208620437,-0.5537100442532883,-2.0745553207381295
2022-12-06 15:33:22.5320,0.1606147723168401,-1.1955341060777465,0.1430253548128471,-4.069659795880821,2.659962909119935,-1.8601901881528335,0.573047343580557,-0.42291570865981976,-1.9638570006891978
2022-12-06 15:33:22.5420,0.216936522204689,-1.150352703876365,0.13716912975118745,-4.572694676001924,2.150249207518698,-1.7403689142876446,0.5425241307866573,-0.3054727724738887,-1.8363367464702924
2022-12-06 15:33:22.5520,0.25100484365147396,-1.1078290016888286,0.13053401390664715,-4.87612910826891,1.6586884417845302,-1.6224042452998715,0.510337971055114,-0.20431326275752554,-1.6982721990106164
2022-12-06 15:33:22.5620,0.26306146246267503,-1.0699023138378458,0.12270906302566902,-4.971104835273323,1.2088882187170822,-1.5016178974087238,0.47802623897914204,-0.12097837783667528,-1.5557789469427585
2022-12-06 15:33:22.5720,0.25489983940652006,-1.0377184367375916,0.113292226302431,-4.867086101792564,0.8164806911197899,-1.373146635872113,0.4469978627184588,-0.055567334943652257,-1.4145849654407665
2022-12-06 15:33:22.5820,0.22938110663462033,-1.0117262988967446,0.10199960423835573,-4.58625175028812,0.4893616622538116,-1.2324466082497758,0.4185842502810778,-0.0067600084585692985,-1.279886705124645
2022-12-06 15:33:22.5920,0.19010738256642548,-0.9918299111735789,0.0887948560086714,-4.159375836556894,0.2290014396856814,-1.0766073363120694,0.39399603992184157,0.02800168536427279,-1.1561951698770978
2022-12-06 15:33:22.6020,0.14118406405813133,-0.9775318815027436,0.0739482570643967,-3.6231092767969533,0.03200924181882225,-0.905479018551235,0.37423204822834355,0.05212041763274372,-1.0471248007972054
2022-12-06 15:33:22.6120,0.08697563338715783,-0.9680539961849349,0.05800501472926753,-3.0177991881126953,-0.10850122102545268,-0.7219335251675806,0.35999848675044055,0.06927253168843878,-0.9551703674661183
2022-12-06 15:33:22.6220,0.031806067765283975,-0.9624541934514269,0.041708787814228904,-2.385015765539951,-0.20172461749539963,-0.5313478400343578,0.3516606006165131,0.08277310687426716,-0.8815590791678605
2022-12-06 15:33:22.6320,-0.020375692535914706,-0.9597547207343575,0.025927944075542542,-1.7645577290629706,-0.25793957849488436,-0.34084746626374934,0.3492139172813064,0.09502764163498871,-0.8262367592506253
2022-12-06 15:33:22.6420,-0.06630524196479301,-0.9590675636665212,0.011587277766610766,-1.1913180482672203,-0.28719930734406857,-0.15863297534055268,0.35226478489740237,0.10721401621579205,-0.787996664983085
2022-12-06 15:33:22.6520,-0.10363130572331297,-0.9596834142948102,-0.000419330449719035,-0.6926108458365785,-0.29817549545164507,0.006726859398145822,0.36003560664415796,0.11928385975107422,-0.7647240817291148
2022-12-06 15:33:22.6620,-0.13103420852336375,-0.9610992467442284,-0.009343309101696673,-0.28640818297849346,-0.2974884215573554,0.14725441031243208,0.3714235744834864,0.13027575762928528,-0.7537124009672216
2022-12-06 15:33:22.6720,-0.14822990720459603,-0.9629884517537194,-0.014697877252447221,0.019336425290912902,-0.28967148146856736,0.2567297477926792,0.3851266149361949,0.1388296583087471,-0.752002927168935
2022-12-06 15:33:22.6820,-0.15586789986868196,-0.9651430965240024,-0.016336180976684576,0.22629833020319728,-0.2776197015192357,0.33173547443444057,0.3998172229428377,0.14373202630676152,-0.7567068119865695
2022-12-06 15:33:22.6920,-0.1553355605259951,-0.9674235488664624,-0.014462128161401777,0.34442331475936805,-0.263182182014351,0.37220188004584676,0.414317746918241,0.1443314268072471,-0.7652748135459867
2022-12-06 15:33:22.7020,-0.14849020061827234,-0.969735961457694,-0.009571771108545507,0.38973840543508087,-0.247585044940678,0.3812607541870239,0.42772795645874706,0.1407314684727285,-0.7756857576358426
2022-12-06 15:33:22.7120,-0.13735977897527568,-0.9720356101440435,-0.0023478104148005542,0.38159645716094226,-0.23156368647028047,0.36448592398259694,0.4394768751130331,0.1337534448882186,-0.7865336670615461
2022-12-06 15:33:22.7220,-0.12387176671934116,-0.9743390288893096,0.006457882467263302,0.3398278849540036,-0.21529220806455523,0.32879868960155584,0.44930070066418576,0.12472870836462643,-0.7970123338472004
2022-12-06 15:33:22.7320,-0.10966750293832854,-0.9767269448114203,0.0161203772468169,0.2823965021144694,-0.1982954564537395,0.28138457603198463,0.4571719224130126,0.11521638670244728,-0.8068220972144153
2022-12-06 15:33:22.7420,-0.09602990316280377,-0.9793287152438491,0.025996278479439652,0.22403215029931384,-0.179494620609609,0.22890801248954343,0.46321418260731534,0.10674327523469239,-0.8160446780178661
2022-12-06 15:33:22.7520,-0.08390959755075324,-0.9822888683916583,0.03553559204398434,0.17595603542506083,-0.15743937049310708,0.17715456911067085,0.4676331347194376,0.10063021988134917,-0.8250336615434855
2022-12-06 15:33:22.7620,-0.07400171064465078,-0.9857231613966096,0.04426498782001091,0.14641237531624504,-0.13069106895607316,0.1310494625722913,0.47068032989444913,0.09791750054923376,-0.8343474723169699
2022-12-06 15:33:22.7720,-0.0668183263673501,-0.9896756312835626,0.051762309233682684,0.14148445704583024,-0.09826568108335101,0.09488419691936083,0.4726516493113399,0.0993576457304956,-0.8447216270247925
2022-12-06 15:33:22.7820,-0.06271981714554989,-0.9940892440489186,0.05763981291083126,0.16570223246782015,-0.06001568991802068,0.07256074947737946,0.4739088352731609,0.10542640294676779,-0.8570558245775061
2022-12-06 15:33:22.7920,-0.06189821510550576,-0.9987991804700107,0.06154765011276356,0.22218505772803046,-0.016836653637951043,0.06770109287598472,0.4749045377518722,0.11631323012219494,-0.8723877930752262
2022-12-06 15:33:22.8020,-0.064331748330783,-1.0035509235745,0.06320122490049244,0.3123562605196882,0.02936489637925798,0.08353402896050602,0.47619136174439086,0.13188238687356535,-0.8918361627162642
2022-12-06 15:33:22.8120,-0.0697426100744212,-1.0080395133862419,0.06242670956356431,0.4354781108864698,0.07593914454401836,0.12255639510941241,0.47840611131972105,0.15162762687556616,-0.9165101311013515
2022-12-06 15:33:22.8220,-0.07758902635671129,-1.011962749691078,0.05921254582894693,0.5883309365185154,0.11994567429824657,0.18605467701226455,0.48223507227136425,0.17466026815071925,-0.9473981373045728
2022-12-06 15:33:22.8320,-0.08710924451574055,-1.0150783833974875,0.05375588302663827,0.765303988068939,0.15870771692775468,0.27361059428913764,0.48837284416968485,0.19976429753125652,-0.9852585391391956
2022-12-06 15:33:22.8420,-0.09741174096026667,-1.017254300511432,0.04649720349392205,0.9589936621125817,0.19036213835073684,0.38268148181089845,0.49748362834588145,0.22552690289745694,-1.0305379506675882
2022-12-06 15:33:22.8520,-0.10758231216270717,-1.0185015174935028,0.03813483431238403,1.161161012712942,0.21429946684231635,0.5083182771201378,0.5101684121243507,0.25052071082415883,-1.0833321147080373
2022-12-06 15:33:22.8620,-0.11677151588080384,-1.0189809022395475,0.02960540745832567,1.3637115506269302,0.23139919020039654,0.6431243274747146,0.5269401694945876,0.27349149186313354,-1.1433841645172316
2022-12-06 15:33:22.8720,-0.12424396932074502,-1.0189785985413675,0.022018582195258124,1.559381957037433,0.24398122404769926,0.7775985537745891,0.5482104192471767,0.29350259379649124,-1.2101008962175193
2022-12-06 15:33:22.8820,-0.12940119774801867,-1.0188562199139843,0.01654817639070268,1.7420642268262383,0.2554575063641395,0.9009377960799938,0.5742903971039096,0.3100037587276882,-1.2825704240745752
2022-12-06 15:33:22.8920,-0.13180738172455453,-1.0189953218522456,0.01429708870386358,1.9069729137104978,0.2697948787937169,1.002217690801206,0.605406733854487,0.3228203142197717,-1.3595808250599775
2022-12-06 15:33:22.9020,-0.13124038517332262,-1.019760061645176,0.016160372606995335,2.0509448684709737,0.29101156733711403,1.071745940815781,0.6417260578136681,0.33208869391209456,-1.439655501026592
2022-12-06 15:33:22.9120,-0.12776736581282397,-1.0214918277806746,0.022708203055375447,2.17301552963836,0.32292036007798725,1.1023498504825564,0.6833796858495472,0.3381811778318634,-1.5211248383451215
2022-12-06 15:33:22.9220,-0.12182242884024379,-1.024531786860776,0.03410206720435653,2.2751770364978436,0.3691913736317087,1.0904117223458738,0.7304816107447076,0.3416565699729783,-1.6022436154870308
2022-12-06 15:33:22.9320,-0.11425523843522516,-1.0292547976187654,0.05005034552780382,2.36305306416095,0.43363782161904096,1.0365507346463279,0.7831375898886299,0.3432486600755005,-1.6813479394660815
2022-12-06 15:33:22.9420,-0.10632482607128979,-1.0360979840096096,0.06980811837577647,2.446197800185845,0.520549426475094,0.9458998863639018,0.8414456733332457,0.34387441953325293,-1.7570329593164158
2022-12-06 15:33:22.9520,-0.09962538614135209,-1.0455749358954465,0.09222729477723415,2.5378110279219497,0.6349351605264253,0.8279235311310965,0.9054884807171469,0.34462179848814223,-1.828325685896708
2022-12-06 15:33:22.9620,-0.09594475733113872,-1.0582738075367109,0.11586002398577305,2.6537906886421685,0.7826177496814847,0.6957168867084321,0.9753165103008322,0.34667253967899975,-1.894826354595964
2022-12-06 15:33:22.9720,-0.09706804954514747,-1.0748409808244752,0.13910605419052563,2.8111738095258176,0.9701792121005491,0.5647907440511986,1.0509201987126295,0.3511330355896446,-1.9567977902712246
2022-12-06 15:33:22.9820,-0.1045464760409153,-1.095950870407727,0.1603775346565316,3.026116993526592,1.2047724213752717,0.4514956639388812,1.1321877450732507,0.3587803726365183,-2.0151917968709436
2022-12-06 15:33:22.9920,-0.1194560388173869,-1.1222578198063693,0.17824778885199108,3.3116282647135766,1.4937867812218906,0.3713905649290748,1.2188480369256658,0.3697692055996035,-2.0716087668381924
2022-12-06 15:33:23.0020,-0.14217406362353266,-1.154323175565156,0.19156159953810784,3.6753016008275314,1.8443088643039691,0.337861420875261,1.3104023496360206,0.38337601436127167,-2.1281902162536017
2022-12-06 15:33:23.0120,-0.1722021671426485,-1.1925149909986041,0.19950154717837593,4.117329839111325,2.262311904829852,0.3611465008266441,1.406051091027081,0.3978666804762923,-2.1874441311987693
2022-12-06 15:33:23.0220,-0.20806044407965393,-1.2368891112601186,0.20161498037254827,4.629059167469742,2.75157852324637,0.447778477218567,1.5046212970784945,0.41054890249250936,-2.2519998320376353
2022-12-06 15:33:23.0320,-0.24727108784217994,-1.2870741419625193,0.19781068239030344,5.192295270078477,3.312488454934355,0.6003859222829678,1.6044994602980405,0.41802126180224647,-2.3242888613760186
2022-12-06 15:33:23.0420,-0.28644403548745834,-1.3421912043510862,0.1883384531329746,5.779505353154409,3.940930798206032,0.8177596549915354,1.7035741805795146,0.416583911637353,-2.4061574939931205
2022-12-06 15:33:23.0520,-0.3214763034125095,-1.400833390330098,0.1737679554485895,6.355023394555009,4.627639273812209,1.0950494610869967,1.7991908542673503,0.4027507956330533,-2.498431764026242
2022-12-06 15:33:23.0620,-0.3478775978860211,-1.4611080495021969,0.15498037462302433,6.877377330608924,5.3581273495067245,1.4239385510100706,1.888115564801183,0.3737979896857972,-2.6004740001242483
2022-12-06 15:33:23.0720,-0.36122404794298313,-1.5207180624195866,0.1331732071068581,7.302844223496966,6.11315052954491,1.7926999515071511,1.9665071161147671,0.32828529413048674,-2.7097906028933942
2022-12-06 15:33:23.0820,-0.35770885063137664,-1.5770442006007124,0.10985684862230831,7.5901592947216505,6.869387967820061,2.1862034702927113,2.029913846087323,0.26648809168982485,-2.82176605359826
2022-12-06 15:33:23.0920,-0.3347142110854304,-1.6272037619692448,0.08680436875131796,7.705919733058623,7.59999572084876,2.586157326491673,2.0733362135217073,0.19067353273376952,-2.929594789743337
2022-12-06 15:33:23.1020,-0.29130078700953627,-1.6680937383196601,0.06592014042694733,7.6298245625475145,8.274915590699457,2.9719755914469888,2.0914058980641945,0.10515590891791175,-3.024461841177062
2022-12-06 15:33:23.1120,-0.22851324568890619,-1.6964535924303588,0.049022592903282744,7.358734050762408,8.861161109811645,3.3225181274490265,2.078721040011807,0.016076191325730963,-3.0960025669846836
2022-12-06 15:33:23.1220,-0.14942067990140864,-1.7089930151458987,0.0375751779630189,6.908647618378186,9.323502156110195,3.618598673427947,2.030352386171873,-0.06911648920404279,-3.1330549658379434
2022-12-06 15:33:23.1320,-0.058837469837066766,-1.7026377359388247,0.03243245929693072,6.313918641465512,9.626048621798805,3.8457866618704952,1.9424862944565955,-0.14243950021077426,-3.1246742976102375
2022-12-06 15:33:23.1420,0.03727882570851819,-1.6749360897679855,0.03368899863005045,5.623337831165821,9.735288936730026,3.996740402755479,1.8130879246779685,-0.19630462197923676,-3.0612890139171243
2022-12-06 15:33:23.1520,0.13266427248967097,-1.624588308322209,0.040703791147375525,4.89335302889547,9.62481729857437,4.072191931604526,1.6423983256225965,-0.22448745546631013,-2.9357889842659564
2022-12-06 15:33:23.1620,0.2216332647251458,-1.5519283892385092,0.052296298865231024,4.17966982309874,9.280886114095999,4.0800628788591515,1.4330992648255292,-0.22305118421373865,-2.7443309643925846
2022-12-06 15:33:23.1720,0.2997921160085216,-1.459134368934708,0.06701500680921489,3.529266452480095,8.706718014999842,4.033106265283835,1.190096580010409,-0.1911174958540591,-2.4867279392332935
2022-12-06 15:33:23.1820,0.36443305582592167,-1.3500482114049965,0.0833592755879134,2.974783172287623,7.92354924354159,3.9462321659624298,0.9200079614085179,-0.13128850169435138,-2.166391212904748
2022-12-06 15:33:23.1920,0.4145851549440362,-1.2296679556076593,0.09990864535869054,2.5322553960523213,6.967859077818429,3.834507107408221,0.630515620555222,-0.049469456119811316,-1.7898747677344737
2022-12-06 15:33:23.2020,0.4507938782209055,-1.1034951564136155,0.11539915997969115,2.2019564018678524,5.8859335858985276,3.7119633780627335,0.32973314834714584,0.04603039968633246,-1.3661376328859973
2022-12-06 15:33:23.2120,0.4747291888562292,-0.9769285481842801,0.12881057927375403,1.9714316720078167,4.727690007036805,3.590706284224087,0.025656108794010646,0.14593016579418083,-0.9056809293783925
2022-12-06 15:33:23.2220,0.4887072169947204,-0.8548240250993063,0.13948783589390842,1.8197560216112678,3.541422697193969,3.479821172363946,-0.2743278580739947,0.24147195149174605,-0.41969381698771985
2022-12-06 15:33:23.2320,0.49519038687185934,-0.7412487348508728,0.1472533539673575,1.7222760430466109,2.370305101743097,3.384098926881744,-0.5639168174717173,0.32550436257719073,0.08072780701636148
2022-12-06 15:33:23.2420,0.49632670161058245,-0.6393843240913847,0.1524295491598061,1.655275538804625,1.2506167914287294,3.303183934848286,-0.8383266128307881,0.3929727314135082,0.5852611502013614
2022-12-06 15:33:23.2520,0.4936023856799381,-0.5515064716883548,0.15572555750573525,1.5999753545693032,0.2110948897486681,3.2318685289005087,-1.0945478086420086,0.440957808459512,1.0848750580290745
2022-12-06 15:33:23.2620,0.48769110846385766,-0.47899741814494473,0.15802623986109893,1.5451177747090614,-0.7272398414123443,3.1616837246144187,-1.3313059030202186,0.4685083286465574,1.5721101640985213
2022-12-06 15:33:23.2720,0.4785507513064171,-0.4224044211706369,0.16017942382299427,1.4874008080561067,-1.5509688961676178,3.083136968321637,-1.5487179791801577,0.4764113585510499,2.0411055026767473
2022-12-06 15:33:23.2820,0.4657384365675871,-0.38157798124498393,0.1628662800135197,1.4295330770612407,-2.253576626694902,2.9876256579515075,-1.747769132430729,0.4669217774382035,2.4874473195140063
2022-12-06 15:33:23.2920,0.44883250019158255,-0.3558893690718292,0.1665814861603227,1.3765359857575898,-2.833895463268988,2.8683765992504195,-1.9297960860408088,0.4434339655115993,2.907953267647337
2022-12-06 15:33:23.3020,0.42781885417783444,-0.3444767725467843,0.17168771116284384,1.3315725206581916,-3.293897774244305,2.720383319070508,-2.0961324727625548,0.41009933162599516,3.300476464968291
2022-12-06 15:33:23.3120,0.4033276889656278,-0.34644780722507756,0.17847692231622558,1.29264779969348,-3.636469993481582,2.5398371074936756,-2.247966601137946,0.3714214269455797,3.6637587883723373
2022-12-06 15:33:23.3220,0.3766688498924174,-0.3609854111461983,0.1871841303798344,1.2510824610599183,-3.863861379119738,2.3237007805152556,-2.3863577493322494,0.3318794953901354,3.997316316860604
2022-12-06 15:33:23.3320,0.34968081846796967,-0.3873469422898424,0.1979418270892879,1.1920008694484174,-3.977188961252587,2.0698133576734556,-2.51230715587923,0.29564136837081684,4.301315243189806
2022-12-06 15:33:23.3420,0.3244571325876276,-0.42478494014674617,0.21070351861016176,1.09646660272765,-3.976938795263654,1.7774825659781892,-2.626790237599543,0.2664158440117467,4.57639350529381
2022-12-06 15:33:23.3520,0.3030341943537477,-0.47243371861787936,0.22518456178657995,0.9445182309484238,-3.8640908472375375,1.4482033572071185,-2.7307019728031725,0.24744845957285966,4.823397883216602
2022-12-06 15:33:23.3620,0.2871183318651005,-0.5291992970337376,0.2408659186693672,0.7182695988345151,-3.6414313311386297,1.0860313199479534,-2.8247196635751184,0.24159543939053787,5.043037404508204
2022-12-06 15:33:23.3720,0.277906738237163,-0.5936765249762136,0.25708009073944127,0.4043772472210902,-3.31472835293334,0.6972453280544039,-2.909121567905011,0.25135815060756644,5.235496809896509
2022-12-06 15:33:23.3820,0.27602299461311824,-0.6641066932728008,0.27315310489121986,-0.004544527266924501,-2.893574567410578,0.28926890655020154,-2.9836013519617004,0.27876367242352773,5.400086448504987
2022-12-06 15:33:23.3920,0.2815517077401605,-0.738377541961721,0.28853977310516776,-0.50962654163563,-2.391801920730857,-0.13072788250610512,-3.0470979101601134,0.32504955091757637,5.535002192233223
2022-12-06 15:33:23.4020,0.29413183017920774,-0.8140587369845771,0.30290038308561235,-1.1063056825195263,-1.827491154760888,-0.5569045200535603,-3.0976531027911087,0.3902142798817111,5.637235646892588
2022-12-06 15:33:23.4120,0.3130637607693515,-0.8884761081358082,0.3161264987297884,-1.78531364428203,-1.2226318022759435,-0.9851821801405841,-3.1323385199313396,0.47255424111921446,5.702641228188882
2022-12-06 15:33:23.4220,0.33740108045597805,-0.9588518571480134,0.32837227114076184,-2.5337019173046036,-0.6023079662681216,-1.4133464875391526,-3.1473305019450217,0.5682943988285978,5.726151593856474
2022-12-06 15:33:23.4320,0.3660210611840305,-1.022537097848935,0.3401263256289144,-3.3357147723514537,0.00691026653436542,-1.8414019905984262,-3.1382088101527823,0.6713852759256765,5.70213048470846
2022-12-06 15:33:23.4420,0.39767510123217736,-1.0773153089534098,0.35228434415196297,-4.1735130108352605,0.5795080074635945,-2.2722965533843476,-3.100489049596037,0.7735277178404536,5.624844298692223
2022-12-06 15:33:23.4520,0.4310041578725394,-1.1216946821445823,0.3661284152240542,-5.027718001623183,1.0940574174433157,-2.7123869189968595,-3.030303971772013,0.8644812847515932,5.489011981430668
2022-12-06 15:33:23.4620,0.4644942653953215,-1.1550917263567138,0.3831372979145361,-5.877559400867156,1.5358150156274937,-3.1707183528914356,-2.925077674491357,0.9326852111374286,5.290373782375109
2022-12-06 15:33:23.4720,0.49637002455868046,-1.1778556024738274,0.40462950024451644,-6.700415502078081,1.8980496449734963,-3.6566197340676867,-2.784028495444336,0.9661829821999061,5.026229418203825
2022-12-06 15:33:23.4820,0.5244629895092573,-1.1911554561173827,0.4313266870958497,-7.470855404794092,2.181878971393647,-4.175959043364085,-2.608392471551029,0.9538051762147004,4.6959309419727235
2022-12-06 15:33:23.4920,0.5461111763658127,-1.1968019105593857,0.4629742477478816,-8.159637846492418,2.3950598090474746,-4.727137868548602,-2.401346536817352,0.886520043297491,4.301333371985188
2022-12-06 15:33:23.5020,0.5581373486485983,-1.1970750033617161,0.4981542582600032,-8.733199015201368,2.5504861042704725,-5.298202148352713,-2.167692098212484,0.7588003336243778,3.8471740187507257
2022-12-06 15:33:23.5120,0.5569419763737508,-1.1945881825138795,0.5343737195125452,-9.154030922921473,2.6649742434063413,-5.866242813071392,-1.9134115145715351,0.5697894815749948,3.3412905986788677
2022-12-06 15:33:23.5220,0.5387514254200595,-1.1921581814394808,0.5684181324843165,-9.38228793985917,2.7583825369802013,-6.399576242779872,-1.6452151532778492,0.32400686724096356,2.7945571441333255
2022-12-06 15:33:23.5320,0.5000653244284625,-1.1926168911952106,0.5968658277190467,-9.379036304593859,2.8525626199260086,-6.862215870842827,-1.3701517656384712,0.03135620113369972,2.220450241469259
2022-12-06 15:33:23.5420,0.43831230842074537,-1.1985211825953415,0.6166140245243006,-9.111492325825315,2.9694918625002535,-7.219345462725423,-1.095285550784265,-0.2936699941048183,1.6342392858181873
2022-12-06 15:33:23.5520,0.35264266886265433,-1.211773085211299,0.6252916063937995,-8.56007566502576,3.128306814483539,-7.442321229187466,-0.8273912844978527,-0.6334921546113792,1.051881519070178
2022-12-06 15:33:23.5620,0.24469769720175347,-1.233216602733154,0.6214987613980043,-7.7262304790784,3.34155162344806,-7.512163996508656,-0.5726138609217214,-0.9693671027325957,0.4887627731801116
2022-12-06 15:33:23.5720,0.11915203450081627,-1.2623079403366093,0.6048790750720142,-6.639214796786915,3.611418226508171,-7.421193554483325,-0.3360840329676007,-1.2833609034774498,-0.04154948247397145
2022-12-06 15:33:23.5820,-0.016149509700350596,-1.2969655547891838,0.5760705198870906,-5.359890361742722,3.9269823461949467,-7.17304133127206,-0.12155831344591565,-1.5600227864355345,-0.5283618882639809
2022-12-06 15:33:23.5920,-0.15057313846805795,-1.3336966158663708,0.536593885990836,-3.98000350955802,4.263482237167967,-6.781591730261165,0.06877889244464723,-1.7875098444816082,-0.964514845354915
2022-12-06 15:33:23.6020,-0.2716471689768694,-1.3680505445890725,0.488721049436158,-2.6161293017539577,4.584503357216858,-6.269442057169006,0.23420442540596814,-1.9580360204850917,-1.3464150312557983
2022-12-06 15:33:23.6120,-0.3665872581766863,-1.3953497729742756,0.43531469012743895,-1.3979880430300158,4.847307237984154,-5.666214859323547,0.3750049473530192,-2.0676418030805177,-1.6732722245700031
2022-12-06 15:33:23.6220,-0.4243096344780651,-1.4115206959655981,0.37956443674598084,-0.45138633176582454,5.010389452475441,-5.00645307207723,0.4918835690597235,-2.1154431687962942,-1.945651924598001
2022-12-06 15:33:23.6320,-0.43763655038909527,-1.4137827175329458,0.3245573095624639,0.1227272200829858,5.041197002617108,-4.326280539676155,0.5855990436919914,-2.1027213508474993,-2.163926539913167
2022-12-06 15:33:23.6420,-0.4051033033721237,-1.4010157403920038,0.27279397502846936,0.2691341733630117,4.921712629529185,-3.6586493897116736,0.6570907497160592,-2.0322635864928946,-2.327479462843306
2022-12-06 15:33:23.6530,-0.33165077758649797,-1.373777034769853,0.22594046585675015,-0.007402972256024577,4.650619485656647,-3.0290239827735297,0.7079412001051357,-1.9081381679648441,-2.4351443129596766
2022-12-06 15:33:23.6620,-0.2277927443415269,-1.3340776466912885,0.18499870297967408,-0.6408413865110787,4.242300689535528,-2.4543361756938133,0.7407231424651214,-1.735841391789362,-2.486541920108685
2022-12-06 15:33:23.6720,-0.10745862967934097,-1.2850675423270481,0.1507368375406207,-1.5173689834853372,3.7240316707413843,-1.9458539510046313,0.758862884813425,-1.5227042877498547,-2.4834514928747833
2022-12-06 15:33:23.6820,0.014793954069049091,-1.2306852059556652,0.12402618734902789,-2.499613624226251,3.132630214352898,-1.5133741519904156,0.7659918464421211,-1.2784106516878555,-2.4304913597756928
2022-12-06 15:33:23.6920,0.12636591495439456,-1.1752097653310514,0.10584244155027198,-3.4538870794531675,2.5106342429729174,-1.167431626041554,0.7650678792265153,-1.015318092129895,-2.3348878482296818
2022-12-06 15:33:23.7020,0.21833402130291046,-1.1226839142882152,0.09691192274938368,-4.272717715434478,1.9013216111788371,-0.9179779326103653,0.7576917181721078,-0.7481971861878565,-2.2055552223313906
2022-12-06 15:33:23.7120,0.2859787593385531,-1.0763285403594482,0.09716558668863468,-4.887292023028953,1.3427939059214171,-0.7700627385953359,0.7439770698248519,-0.49318392056668,-2.051923904312747
2022-12-06 15:33:23.7220,0.3282260401068325,-1.0381432705931997,0.10528133912610382,-5.268234312979296,0.8627578030823413,-0.7185970517720159,0.7230659963866283,-0.26604026990255286,-1.8829502394135889
2022-12-06 15:33:23.7320,0.3464401597230875,-1.008807673265958,0.11859154116889412,-5.417143859973043,0.4757395362180065,-0.745073217027701,0.6940587921687648,-0.08003323933202745,-1.7065852255530787
2022-12-06 15:33:23.7420,0.3431207757754758,-0.9878699820676256,0.13346820712926,-5.353846430260278,0.1833571550481202,-0.8184866501192668,0.6569451008982653,0.056132394493590844,-1.5297437436821417
2022-12-06 15:33:23.7520,0.32095407433138273,-0.9741188374933522,0.14606659714309503,-5.104577175054071,-0.022891400140901717,-0.9007060321941152,0.6131652893986728,0.13981009112111364,-1.358586067506447
2022-12-06 15:33:23.7620,0.2824374837439556,-0.9659948994519187,0.15315276870910532,-4.6947309621742574,-0.15756992095759265,-0.9544268179024452,0.565636317389151,0.17486594146086318,-1.1988093111744322
2022-12-06 15:33:23.7720,0.2300364485987926,-0.9619230617139093,0.15273428714731382,-4.1473613010478365,-0.23737126738346204,-0.9508436792873904,0.5183100505978675,0.17087380419545534,-1.0557114091945967
2022-12-06 15:33:23.7820,0.16662690330541996,-0.9605183521703757,0.1443360520067232,-3.4861781768077322,-0.2782448408462355,-0.8746441506881273,0.47547512508806644,0.14119517532549575,-0.9339706420083705
2022-12-06 15:33:23.7920,0.09589746634693898,-0.9606854402384118,0.1289275253608853,-2.740185132424338,-0.29375920480201706,-0.7253951641735944,0.44102509974458304,0.10039117746442078,-0.8372400972235633
2022-12-06 15:33:23.8020,0.022449083874686575,-0.9616536976261049,0.10860750218518636,-1.94684934986165,-0.2943661798793458,-0.5158624055549645,0.41784710108339546,0.06156536332691259,-0.7677119531781103
2022-12-06 15:33:23.8120,-0.04851096166049625,-0.9629747746632605,0.08615317434073679,-1.151745470782291,-0.28718214788726437,-0.2683926722478113,0.40741901857177276,0.0342270740918388,-0.7257901686991243
2022-12-06 15:33:23.8220,-0.11180824230258526,-0.9644860969110537,0.06450429290351942,-0.4043192360643892,-0.276112156727622,-0.010258382975030286,0.40966843385849083,0.023124819844880757,-0.7099759354379879
2022-12-06 15:33:23.8320,-0.16307828836430224,-0.9662326416057438,0.04624943614465801,0.24899593205624357,-0.2623443248153989,0.2314173035413856,0.42311279354644427,0.028255340405652803,-0.7170296414761944
2022-12-06 15:33:23.8420,-0.19945008870268005,-0.9683493430518585,0.033205799848895434,0.7721770764172995,-0.2452764843147688,0.4344254293608793,0.44524437178777365,0.04593907947532809,-0.7424127719450722
2022-12-06 15:33:23.8520,-0.2199453156585503,-0.9709321552073344,0.026189022724254215,1.1453504077942653,-0.22376660570289506,0.5849717290642045,0.47306194868398976,0.0705513458829022,-0.7809370929550717
2022-12-06 15:33:23.8620,-0.22548758917971434,-0.9739464993447258,0.02502842785294977,1.3672925903922024,-0.19733483964191006,0.6790659430506449,0.503614017200331,0.09634215555915489,-0.8274834835590321
2022-12-06 15:33:23.8720,-0.21851991649558936,-0.9772142198725067,0.02880773476508561,1.4540298411782222,-0.1668253879428925,0.7215086477911191,0.5344224741587502,0.11883980567655986,-0.877626776118555
2022-12-06 15:33:23.8820,-0.20233507252107702,-0.9804818343508099,0.03623642330800821,1.4339075204793688,-0.1342373917186094,0.7229612114937936,0.5637030287413238,0.13555585818558125,-0.9280289059917112
2022-12-06 15:33:23.8920,-0.18030796158886567,-0.983528783518888,0.04601846819977034,1.340494066647742,-0.1018690744552691,0.6962158751862118,0.5903752093040215,0.14596997536895123,-0.9765348773440317
2022-12-06 15:33:23.9020,-0.1552483159979873,-0.9862550185598034,0.05710248329427179,1.205338296415631,-0.07128935035499595,0.6529631766402324,0.6139283693215708,0.1509812056771614,-1.0219994884391017
2022-12-06 15:33:23.9120,-0.1290474980982515,-0.9887042225157269,0.06876279439438313,1.0526251390364822,-0.0427074538954225,0.6019865052096891,0.6342434698998533,0.1521256332787754,-1.063950114844249
2022-12-06 15:33:23.9220,-0.10268534384856728,-0.9910200055535668,0.08053940704904188,0.8970828805792078,-0.015031630600142553,0.5489793454914469,0.6514508393929803,0.15086617733225444,-1.102223923753285
2022-12-06 15:33:23.9320,-0.07653317703797693,-0.9933699785100352,0.09211346196735883,0.7453061879667932,0.013516448158833395,0.4974849596577596,0.6658548510941029,0.14817106553197046,-1.136702853436065
2022-12-06 15:33:23.9420,-0.050791859909986956,-0.9958817444113804,0.10319647342179593,0.5994533161160812,0.04464821575763473,0.45015690967568195,0.6779136084823718,0.14444962740821213,-1.1672182464234895
2022-12-06 15:33:23.9520,-0.02587852069381178,-0.9986142584023179,0.11348172112717406,0.46156278461634986,0.07949783569046084,0.40966480662785804,0.6882432593556639,0.13976276736524265,-1.1936256528376834
2022-12-06 15:33:23.9620,-0.002626645962535046,-1.0015604860380258,0.12266774587736154,0.33678320318108923,0.11847605203610156,0.37891302533627835,0.6976185849321536,0.13413083170786902,-1.2159834925386752
2022-12-06 15:33:23.9720,0.017738918081418534,-1.0046648413274908,0.13053085147923407,0.2345214215416591,0.1613776834661479,0.36060603718413536,0.7069548880761685,0.12776219577732356,-1.2347359356834882
2022-12-06 15:33:23.9820,0.033793610292580656,-1.007843260911918,0.13700444218913074,0.1675105179636804,0.20758176175144924,0.35647613090509905,0.7172732024042195,0.12111106968786069,-1.250815309036257
2022-12-06 15:33:23.9920,0.04415640416458528,-1.0110032485569795,0.1422247213282078,0.1496361101203226,0.2562612336727174,0.3666043694565988,0.7296610336170015,0.11478315454131482,-1.2656307732897454
2022-12-06 15:33:24.0020,0.04767597222696522,-1.0140673611300506,0.14652171718433044,0.19369470954084217,0.30660504284818996,0.3891728218463979,0.745238516294685,0.10937870634701874,-1.2809670262701918
2022-12-06 15:33:24.0120,0.04351290258528408,-1.0170058864147853,0.1503579526886826,0.30996422347941993,0.3580980566219262,0.4207637303014571,0.7651323883067155,0.10537169635248343,-1.2988475818487004
2022-12-06 15:33:24.0220,0.031146334769011727,-1.0198844576407937,0.15423297953269963,0.5057516208409635,0.41091582541650434,0.45711254488429753,0.7904561454016907,0.10308825071874729,-1.3214078085022085
2022-12-06 15:33:24.0320,0.010370449975031186,-1.022928755594291,0.1585778992784322,0.7854379778406173,0.4664815654256098,0.49410375192881056,0.8222925999462685,0.10279284061382787,-1.3507879432758547
2022-12-06 15:33:24.0420,-0.01867383766280089,-1.0265987523113302,0.16366052367771455,1.1503937512459577,0.5281779555261938,0.5287761592411113,0.8616719995794285,0.10483707752494538,-1.3890272254381228
2022-12-06 15:33:24.0520,-0.055436329384678,-1.0316522574877218,0.1695126596676233,1.5984924328854873,0.602091517690869,0.560165895799008,0.9095381667365292,0.10979373442530266,-1.4379374485672074
2022-12-06 15:33:24.0620,-0.09890470287965526,-1.0391707993962311,0.17588479258946224,2.123432857698425,0.6975514832935538,0.5899038594802214,0.966698974170241,0.11849942231975008,-1.4989531952096848
2022-12-06 15:33:24.0720,-0.14760331138805008,-1.050525858837524,0.18223391814192444,2.714317502790816,0.8271986794307417,0.6225169376262818,1.0337632874807878,0.13195317736505452,-1.5729797891643427
2022-12-06 15:33:24.0820,-0.19965854199559985,-1.0672785722072133,0.1877508125741185,3.3558268282626282,1.006412507578362,0.6653663952867384,1.111071027909135,0.15105163868993007,-1.6602744419099507
2022-12-06 15:33:24.0920,-0.25291232510786943,-1.0910241564189682,0.19142860516436974,4.029015631492922,1.2520950566876663,0.7281694383416777,1.1986230910843434,0.17618721075620872,-1.7603940134818437
2022-12-06 15:33:24.1020,-0.3050483411496951,-1.1232030585741988,0.19216822213564347,4.712472689670362,1.580973861596772,0.8221078165788427,1.2960128201997942,0.2067901825465463,-1.8722251650194544
2022-12-06 15:33:24.1120,-0.3537000694518855,-1.1648993917598884,0.18891157775761996,5.3835025654181266,2.0076449569830674,0.9585891078914187,1.4023563012532099,0.24093407965243094,-1.9940881565357096
2022-12-06 15:33:24.1220,-0.39652260955545,-1.2166416925344445,0.180790818440626,6.019077317825367,2.542536240611801,1.14776773490085,1.516220106559409,0.275125434733163,-2.1238831190800473
2022-12-06 15:33:24.1320,-0.4312214863873266,-1.278221472251733,0.16728085399849996,6.596421460983785,3.189932345593169,1.3969525080120904,1.6355490067917196,0.304366436727721,-2.2592315735869968
2022-12-06 15:33:24.1420,-0.45554635618263867,-1.3485508226221208,0.14833978040595167,7.093199980046938,3.9462303111968327,1.7090425054179237,1.757598329220404,0.32252326720866414,-2.397559367076788
2022-12-06 15:33:24.1520,-0.46727937726131596,-1.4255864141838308,0.12451611535008622,7.487445259318878,4.798656024294181,2.0811748772727507,1.8788780316079552,0.3229695421010675,-2.536073567772793
2022-12-06 15:33:24.1620,-0.4642681869396031,-1.5063514599942571,0.09699933497009015,7.757578384857382,5.724727874983575,2.5038220127738366,1.9951186681875561,0.2994217392063929,-2.671608194586759
2022-12-06 15:33:24.1720,-0.44455893780466826,-1.5870815383067816,0.06759804708611894,7.883037083144742,6.692776620297611,2.960562007671241,2.1012678232878534,0.24685585437946295,-2.800353889570947
2022-12-06 15:33:24.1820,-0.4066679940971601,-1.663488814394309,0.03864239293273243,7.846004936803841,7.663697037653024,3.428632090437312,2.191521068510221,0.1623919079854915,-2.917539883496109
2022-12-06 15:33:24.1920,-0.349987864224915,-1.73108575379956,0.012807055502056321,7.634489285602602,8.593695511879812,3.880275075735501,2.259400976412789,0.0460415181480716,-3.017184087753143
2022-12-06 15:33:24.2020,-0.275256192899654,-1.7854760524910314,-0.007162963448998011,7.246490038943831,9.437290981977934,4.284955170714191,2.297930853304615,-0.09878081041423838,-3.092040724856077
2022-12-06 15:33:24.2120,-0.18495006820949664,-1.8225504302610345,-0.01883794337368803,6.694319548305698,10.149713198007936,4.612642527349684,2.2999828708329617,-0.2650814887671845,-3.133839144350757
2022-12-06 15:33:24.2220,-0.08344145935464806,-1.8386080074505742,-0.020561829436922977,6.007594655203732,10.688385017167116,4.838166364783028,2.2588690082877787,-0.4425403569987359,-3.1338392764351233
2022-12-06 15:33:24.2320,0.023219105484216053,-1.8305051057975192,-0.011861467009125127,5.233378556403086,11.0140581360165,4.9459482238103,2.1691601380079653,-0.6182559372606,-3.0836598450937567
2022-12-06 15:33:24.2420,0.1279439842961665,-1.795952837404373,0.006362802200982168,4.432444706075554,11.09279878502249,4.933640601333474,2.0275839170467145,-0.7779686950806401,-2.9762752378321347
2022-12-06 15:33:24.2520,0.22360200628189883,-1.7339968756467927,0.03197778797332266,3.6715747271252854,10.899835999852792,4.813046855176461,1.8337468336119946,-0.9076297473599996,-2.807020005945979
2022-12-06 15:33:24.2630,0.3041372204142736,-1.6455354728262077,0.062044262175450546,3.013182521954336,10.424992268489063,4.607687710815775,1.5904442479120675,-0.9950831180476265,-2.574396299007366
2022-12-06 15:33:24.2720,0.36549484692407,-1.5335976173015375,0.09334482259386978,2.5049481252164303,9.677613632065748,4.348041109549339,1.3034760850342102,-1.0315797148637966,-2.2804815861892607
2022-12-06 15:33:24.2820,0.4061007534529026,-1.4031612252142478,0.12283255521574707,2.172502000413011,8.68817491830275,4.06642780679002,0.9810748386822975,-1.0128196604489754,-1.9308135412724192
2022-12-06 15:33:24.2920,0.426826833083607,-1.2605263114353285,0.14794661932635814,2.0169863211596093,7.505089732605164,3.792929371784803,0.6331537947410828,-0.9392546030243497,-1.533777040408602
2022-12-06 15:33:24.3020,0.43054598347920275,-1.1124805254361807,0.16684711515621997,2.017377428342326,6.187784823140302,3.552423598766296,0.27055102174350154,-0.8155668600671484,-1.099664837366735
2022-12-06 15:33:24.3120,0.4214448006110303,-0.9655400297777356,0.178622972622817,2.136133948744238,4.79875023210189,3.3621515781339437,-0.09567762301905385,-0.6495627395016704,-0.639642435719435
2022-12-06 15:33:24.3220,0.40424088103768807,-0.8254339890037229,0.1834547617853439,2.3265203583069023,3.397031372194994,3.229550286076802,-0.4549762263194427,-0.45095747007764175,-0.1647952485226477
2022-12-06 15:33:24.3320,0.38341602008255476,-0.6968520176353636,0.18264501364607177,2.5403279411454207,2.0342371938935,3.1508343739158,-0.7980726141852451,-0.23047156501454738,0.3146577922430455
2022-12-06 15:33:24.3420,0.3625675978350309,-0.5833778778433426,0.17842710600306386,2.735004914588514,0.7528219344519599,3.1112769046580784,-1.1177508776939014,0.0006576454007670395,0.7899423232130199
2022-12-06 15:33:24.3520,0.34398801484826,-0.4875110386261815,0.17354992747207162,2.8792011208726582,-0.41426416324664994,3.087816310680248,-1.409413079021196,0.23095030439503605,1.2540468177235062
2022-12-06 15:33:24.3620,0.3285651250248925,-0.41071942399349903,0.17074966708242176,2.9556848765456936,-1.443395552164496,3.0535828618504715,-1.6712523603957758,0.44901969330470304,1.70175242394661
2022-12-06 15:33:24.3720,0.3160239281346276,-0.35352460142102743,0.17227078686079217,2.960932636366925,-2.3198542373088755,2.982983634055802,-1.9039973710056726,0.6441101676031017,2.129431867223522
2022-12-06 15:33:24.3820,0.3054212355576208,-0.3156394119701222,0.17955816568261507,2.901581800121574,-3.037000260237033,2.8558432714937148,-2.1103244125899074,0.8068000868151055,2.534753333499135
2022-12-06 15:33:24.3920,0.2957218800012729,-0.2961539064164311,0.19315728853248265,2.7889774183274874,-3.5948742845259307,2.6597171426934465,-2.2940998342916257,0.9297304806233428,2.9164266040724787
2022-12-06 15:33:24.4020,0.2862714373675067,-0.29373716187667626,0.2127852807496576,2.633626791615255,-3.9983943744586736,2.3903216536467675,-2.4596091993295626,1.0082090434154998,3.274059425785066
2022-12-06 15:33:24.4120,0.2770331460283758,-0.30681630381107783,0.23750131338615119,2.441242256823492,-4.255528959824917,2.0506050490416965,-2.610881853605812,1.0405818917489693,3.6081032300294935
2022-12-06 15:33:24.4220,0.26854585842860623,-0.3337081728535264,0.2659091741645821,2.2113681240178686,-4.375803359669216,1.6491512675042566,-2.7511653470105633,1.028326148349062,3.919803547967903
2022-12-06 15:33:24.4320,0.26165211904913793,-0.372700422530818,0.296348125263361,1.9386725160000133,-4.369311144580398,1.1984692320941719,-2.88256438401677,0.9758733667582207,4.211052819641241
2022-12-06 15:33:24.4420,0.25711166204688307,-0.422093891532318,0.3270534531498331,1.6161522221668367,-4.2461970593291944,0.7134731942242006,-3.0058380363755832,0.8902155860764109,4.484070088020722
2022-12-06 15:33:24.4520,0.2552393845613461,-0.48021989618598143,0.3562899674122989,1.2389972969889715,-4.01647441472434,0.2102283134728688,-3.1203463260246527,0.7803655851345491,4.740887463242243
2022-12-06 15:33:24.4620,0.255690785995546,-0.5454403229287846,0.38247636592714634,0.8077825246456669,-3.69006169650949,-0.2951514436731316,-3.224146735985626,0.6567365679030294,4.982691352366563
2022-12-06 15:33:24.4720,0.2574728728929008,-0.6161360789320242,0.4043156266986615,0.32992105661763443,-3.276977799735762,-0.7876521812283104,-3.314243174325111,0.5304757428854224,5.209133422623864
2022-12-06 15:33:24.4820,0.2591917182922163,-0.6906895255016307,0.420921067349533,-0.1811660312366699,-2.7876418389761604,-1.2546374688486917,-3.386962737265631,0.4127489776329328,5.417767819739843
2022-12-06 15:33:24.4920,0.25947050225438995,-0.767458671219488,0.4318964149868961,-0.7090103748029345,-2.2332435004266253,-1.687026756967263,-3.4383842433210607,0.3139641238505295,5.603758801976701
2022-12-06 15:33:24.5020,0.25740753029133007,-0.8447302679746588,0.4373256232769602,-1.238303658834035,-1.6262511414550205,-2.079895500838838,-3.4647081131219095,0.24295631294967707,5.759934586240546
2022-12-06 15:33:24.5120,0.25291886691459053,-0.9206477692422366,0.4376740564860028,-1.7589589759628201,-0.9811747045016669,-2.432156298532732,-3.4624842472847996,0.20620823849026723,5.877173216402782
2022-12-06 15:33:24.5220,0.24684459248665636,-0.9931463725380384,0.43366875237914315,-2.2685854810553163,-0.31549719092129136,-2.745560406837533,-3.4287021856561646,0.20719402642992477,5.945039845656829
2022-12-06 15:33:24.5320,0.24078975039048253,-1.0599638086303034,0.4262447526487915,-2.77249562465201,0.3497198895507164,-3.0238193628470436,-3.3608366906742804,0.24591566055486433,5.952577794976905
2022-12-06 15:33:24.5420,0.23677429312560272,-1.1187878560888092,0.41658126807904905,-3.28137515979745,0.9902930291207148,-3.272543966406563,-3.256961843857193,0.31868562594857486,5.889178590216804
2022-12-06 15:33:24.5530,0.23681285750050657,-1.167536825468423,0.4061560237973946,-3.8076078285930386,1.5808677048872455,-3.4998741002530807,-3.115983194677633,0.4182119790466541,5.74548500772418
2022-12-06 15:33:24.5620,0.24251868301821483,-1.2046926399661915,0.39670704518094585,-4.361403171187848,2.0980384222790867,-3.716863027131805,-2.9379427646935827,0.5340330802919018,5.514295777687987
2022-12-06 15:33:24.5720,0.2547759693486455,-1.2295782625747391,0.39004093343549284,-4.947450570957572,2.5236812778507858,-3.936634152989405,-2.7242921350283864,0.6533086588304114,5.191446752727306
2022-12-06 15:33:24.5820,0.27349702711093504,-1.2425062904204494,0.38771923369731903,-5.562380356189969,2.8475100783140412,-4.17204898517658,-2.478031679329283,0.7619224868234413,4.776638840065019
2022-12-06 15:33:24.5920,0.29747351539812394,-1.2447897852726446,0.39072467375806236,-6.1931334254948265,3.0683604765399006,-4.432507308824698,-2.2036645853806465,0.8458178807604176,4.274148193366254
2022-12-06 15:33:24.6020,0.32432665148126827,-1.238656460757047,0.39922674958652477,-6.816292529475092,3.194318040838301,-4.72100742678127,-1.906984448389234,0.8924642406657758,3.6932927179679216
2022-12-06 15:33:24.6120,0.3505594007810817,-1.2271125180469198,0.4125310794450315,-7.398375534564887,3.2421449155339337,-5.032569021195526,-1.5947724146548696,0.8923089848303816,3.0484872880597025
2022-12-06 15:33:24.6220,0.3717272376213164,-1.2137587101534657,0.42922322779688266,-7.8971083132512225,3.2363030506453443,-5.354610851320043,-1.2744877795543408,0.8399994793141129,2.3587465224246915
2022-12-06 15:33:24.6320,0.38277159635315866,-1.2025082062057426,0.4474423306388068,-8.263893065161941,3.2073334820216264,-5.669088317874499,-0.9539844690181556,0.7351220885462727,1.6465879364237186
2022-12-06 15:33:24.6420,0.3785721895541655,-1.1971546759774223,0.4651863448109368,-8.447952507466029,3.188959033829608,-5.955559611100757,-0.6412130399482785,0.582273520438473,0.9364055930985401
2022-12-06 15:33:24.6520,0.35473482514883153,-1.200807517721619,0.48057091519181805,-8.402606096134388,3.2135474727626914,-6.194211654729826,-0.34383108631006354,0.39044336270082747,0.2524869232422303
2022-12-06 15:33:24.6620,0.30853789844004403,-1.2152995762041654,0.4920151655354879,-8.093541761257177,3.3064098129234116,-6.368216943608336,-0.06867792391965012,0.17184564230484697,-0.3830794560475137
2022-12-06 15:33:24.6720,0.2398615675986938,-1.2407184029808063,0.4983747046931146,-7.507949828518335,3.480193195444976,-6.465322790483669,0.17883697337593218,-0.059589288815358424,-0.9523195224456278
2022-12-06 15:33:24.6820,0.15188275417934527,-1.275194424177081,0.4990548942205974,-6.662581358629029,3.730864120827032,-6.4789472712010365,0.39527520908316977,-0.2898464100756269,-1.4428371814454417
2022-12-06 15:33:24.6930,0.05135358862241009,-1.3150176882384275,0.49411179475742945,-5.608706173595251,4.036431155352209,-6.409050731468366,0.5794204140438566,-0.5063662389568904,-1.8485886883910234
2022-12-06 15:33:24.7020,-0.051663865498179834,-1.35508541110242,0.48430572461218657,-4.43246337778446,4.3588987492968405,-6.262737063699756,0.7320387229765756,-0.6992657530467338,-2.169772813497156
2022-12-06 15:33:24.7120,-0.14471991861844516,-1.3896339188708382,0.471034321812297,-3.249536925151123,4.6493347290033995,-6.054149481093531,0.8550783828473233,-0.8620131498460847,-2.4117002248948296
2022-12-06 15:33:24.7220,-0.21466507686294706,-1.4131666560255478,0.45605344350565236,-2.1930910129569217,4.855523303594704,-5.802918141173995,0.9504954424254758,-0.9913880193912675,-2.5826762524857303
2022-12-06 15:33:24.7320,-0.2500792533227416,-1.4214160987849527,0.4409298003495218,-1.39422016246443,4.931157440465918,-5.530350033923159,1.019213954185694,-1.086732479613665,-2.6913272943533677
2022-12-06 15:33:24.7430,-0.24404950272195233,-1.4121054747460446,0.4263186918210846,-0.956243987081748,4.844683064009475,-5.253184436551509,1.0608773371207632,-1.1487686243098907,-2.7443259392253307
2022-12-06 15:33:24.7520,-0.196423777877569,-1.385307471917606,0.411412133644627,-0.9284410416769802,4.585436587219769,-4.976626107411837,1.0747288558024883,-1.1784305250809541,-2.7456214165807578
2022-12-06 15:33:24.7630,-0.11449927768256067,-1.343337896502241,0.3940321349767842,-1.2888712655022687,4.16546098394854,-4.690759812115793,1.061216949714986,-1.176093333154632,-2.697583841932855
2022-12-06 15:33:24.7720,-0.01159316494407979,-1.2902624429411782,0.37155869148822473,-1.9453281620598384,3.616895984219694,-4.374465919300704,1.0233185494439203,-1.1414017974409878,-2.603277126053226
2022-12-06 15:33:24.7820,0.09613211832307808,-1.2311683331275467,0.3422773221717155,-2.756566222664808,2.9860388336192845,-4.006635810867572,0.9667011411925505,-1.0737329968651348,-2.468404634731129
2022-12-06 15:33:24.7920,0.19347071213176292,-1.1713607936374861,0.3063558230860262,-3.566972463366951,2.3256931343000153,-3.5787444175424454,0.8986365979842884,-0.9731338277214479,-2.3018507486288176
2022-12-06 15:33:24.8020,0.26929922533794937,-1.1156069791264516,0.2659080575597514,-4.242464531697718,1.6873086650740878,-3.101301958602685,0.8263473828097841,-0.8414066435350297,-2.1147172057776396
2022-12-06 15:33:24.8120,0.3181024206830047,-1.067529156872389,0.22422852651618724,-4.695778623621546,1.1140132063240977,-2.6010637190410337,0.7556321516416877,-0.6830005541176718,-1.918544138650312
2022-12-06 15:33:24.8220,0.33970683154552017,-1.029260748872302,0.18470809667103796,-4.894598611165576,0.6355784879322685,-2.1118308201385423,0.6902373071986116,-0.5054245271361707,-1.72361060951751
2022-12-06 15:33:24.8320,0.3377338846422507,-1.0014355833515873,0.1499143985540003,-4.8534768833182,0.2663674185747098,-1.6641622630016901,0.6319657307323844,-0.31893473013078677,-1.537921581966317
2022-12-06 15:33:24.8420,0.3176048409589545,-0.9834577601934313,0.12106943113622574,-4.6162198564293515,0.006526283814755646,-1.2778280746781412,0.5812581970545743,-0.13538385128135585,-1.3670246081267605
2022-12-06 15:33:24.8520,0.2848285512078661,-0.973900636253603,0.09797668384404651,-4.23686041863248,-0.15457272377870748,-0.9584384635929751,0.5379340858988384,0.033563742019105475,-1.214426323711229
2022-12-06 15:33:24.8620,0.243981514539825,-0.9708893073145322,0.07936048834089358,-3.7652906766919565,-0.23424255500989677,-0.6983943407230986,0.5018160860345556,0.1783342851323365,-1.0822206777170782
2022-12-06 15:33:24.8720,0.19843809635589787,-0.9724039863540852,0.06347029065528059,-3.2402294782628447,-0.2529195069773133,-0.4814528507960088,0.47306340378820744,0.2928772471006112,-0.9716019368686822
2022-12-06 15:33:24.8830,0.1506372487376146,-0.9765181541671167,0.048709292450793674,-2.68897284102773,-0.23140781736725055,-0.28904968705077483,0.4521906290785704,0.3752459696307251,-0.8831232350494631
2022-12-06 15:33:24.8930,0.10254833103677638,-0.9815975169323525,0.03408580777595011,-2.1312075367906713,-0.18866396717709547,-0.10600618490603848,0.43986707682390247,0.42726477665514984,-0.8167360175789918
2022-12-06 15:33:24.9030,0.05603578800404601,-0.9864494283558773,0.01941482535284741,-1.5835613616584199,-0.13997146879509162,0.0758986663756786,0.43661692924638085,0.45348940809362936,-0.7717213177701787
2022-12-06 15:33:24.9130,0.012967484265649377,-0.9903884198098989,0.005281760048810244,-1.062400885891801,-0.09573885024765517,0.2567984888815494,0.4425215696599848,0.4598165500826602,-0.7466199636978456
2022-12-06 15:33:24.9220,-0.024918890287014252,-0.9932028354052864,-0.007194669841734125,-0.5839889332989973,-0.06123062043754967,0.4298196171762437,0.4570108203330196,0.45213192996097984,-0.7392451598162877
2022-12-06 15:33:24.9330,-0.05625881374916633,-0.9950439817634855,-0.016731085116893186,-0.16265878886011192,-0.0372364258344584,0.5839291955036848,0.4788067569914752,0.4353214676656505,-0.7468328404380272
2022-12-06 15:33:24.9430,-0.08026085753022894,-0.9962755788048628,-0.022271617325833507,0.19151277212601164,-0.02137119354936388,0.7077203060756618,0.5060390412913777,0.41282364183429315,-0.766330432075316
2022-12-06 15:33:24.9530,-0.09678021752020406,-0.9973157880047684,-0.023295182473281707,0.47422554878643575,-0.009638517241363099,0.7930255977217551,0.5365022090266913,0.3867094523045319,-0.7947512306315548
2022-12-06 15:33:24.9620,-0.10627331249954737,-0.9984985664629453,-0.01996499224944903,0.6872066859148409,0.0020306786416130363,0.8374085843298509,0.5679895309437742,0.35810843805781983,-0.8294874146720715
2022-12-06 15:33:24.9730,-0.10968089782811735,-0.9999841077049041,-0.013089493753240287,0.8374872552429055,0.016534596681029644,0.8449766253512425,0.598615374233986,0.32772855816441304,-0.8685133120646339
2022-12-06 15:33:24.9830,-0.10826613252916263,-1.0017446460595911,-0.003910774652979709,0.9361324229340889,0.03495368607476022,0.8253688122318638,0.6270366758437499,0.2962598058622763,-0.9104723875139897
2022-12-06 15:33:24.9930,-0.10340783295086323,-1.0036256122488953,0.006205826020399644,0.9965474377979707,0.05669188377688424,0.7912719887188381,0.6525236006551403,0.26455718206308326,-0.9546621102067592
2022-12-06 15:33:25.0030,-0.09636789193524892,-1.0054430606775349,0.016069893932455115,1.0323628935899127,0.08026077122786944,0.7553596319671934,0.6748979561583304,0.23360983225357723,-1.0009203697187221
2022-12-06 15:33:25.0130,-0.08809875334031272,-1.0070608126008356,0.024861596178978523,1.0552465868287737,0.1042141063223924,0.7277259196612383,0.6944049273938322,0.20438154054850774,-1.0494248110402522
2022-12-06 15:33:25.0220,-0.07917227843032267,-1.008414755462775,0.03219679270669184,1.073403576203626,0.12771969000894848,0.7144889870480475,0.7115805051813034,0.17763334740567144,-1.1004503632516378
2022-12-06 15:33:25.0330,-0.06986464425726086,-1.009495334200454,0.03808761407154181,1.0914561109033563,0.15060811263759227,0.7176108808553507,0.7271458983552037,0.15381753921884506,-1.1541570446613787
2022-12-06 15:33:25.0430,-0.06035394432130935,-1.010323473590323,0.04284720261472405,1.1117655781018587,0.17313365445202797,0.7355645402012824,0.7419333960731399,0.13308633777049322,-1.2104723727814783
2022-12-06 15:33:25.0530,-0.05093636272067142,-1.0109457881868598,0.046985453470943045,1.1365359648946294,0.19579311444851866,0.7643581908984707,0.756835675966506,0.11540344866548415,-1.2690920887516377
2022-12-06 15:33:25.0620,-0.04217273057662126,-1.0114498550261861,0.05112516211451382,1.169742401629935,0.21936745437926686,0.798509372508421,0.7727693314294249,0.10069697193929715,-1.3295752602601272
2022-12-06 15:33:25.0730,-0.03492240413911016,-1.0119848428661473,0.05594388396037776,1.218165698143313,0.24511657661319233,0.8317682553322052,0.7906480212276399,0.08897542653640257,-1.3914827843572748
2022-12-06 15:33:25.0830,-0.03027089911144417,-1.0127760888366053,0.06212778837844013,1.29130473674752,0.2749766344576281,0.8576206884134645,0.8113652007015749,0.08035883871432653,-1.454509597218939
2022-12-06 15:33:25.0920,-0.02939002893953796,-1.014133805547471,0.07031613097613515,1.4003725703931291,0.3116912295552456,0.869748917964438,0.8357879090463965,0.07503088636112495,-1.5185795143498995
2022-12-06 15:33:25.1030,-0.03337890708135586,-1.0164613516856216,0.08101965272789047,1.5568141867740455,0.3589093707130361,0.8626553791129523,0.8647610924683456,0.07315811658687642,-1.583891786169378
2022-12-06 15:33:25.1130,-0.04312462627068089,-1.0202657281415053,0.09451180840404155,1.7707983965171838,0.42129698354000633,0.8325644665383695,0.8991164260286207,0.07483032673707968,-1.6509195365956209
2022-12-06 15:33:25.1230,-0.059202564151931744,-1.0261704951169557,0.11071041447306827,2.0499947041533515,0.5046740667896601,0.7785434505272743,0.9396746423961588,0.08005535947365396,-1.7203638736708162
2022-12-06 15:33:25.1330,-0.08182001990723323,-1.0349311173812408,0.12907855390623965,2.398759963901462,0.6161787199761836,0.7036173971310217,0.9872314889131485,0.08880175096403232,-1.79307396721547
2022-12-06 15:33:25.1430,-0.11079935633284131,-1.0474495740122982,0.14857371159762423,2.8177321897144116,0.7644502143698052,0.6155789849828386,1.0425230185788017,0.10104531310508634,-1.869955549134894
2022-12-06 15:33:25.1530,-0.1455941076466214,-1.0647788135777378,0.16766656767116356,3.303783099960659,0.9597742916217206,0.5272256017429943,1.1061707438766473,0.1167679250041795,-1.951896790132335
2022-12-06 15:33:25.1630,-0.18532643716998345,-1.0881032421390255,0.18443994258855745,3.8502553750123103,1.214074229738157,0.45585088522783135,1.1786100997740654,0.13588120111524402,-2.0397304338121187
2022-12-06 15:33:25.1730,-0.22882575250139234,-1.1186813597973977,0.19676624391123565,4.447348026996957,1.5406037519275415,0.42193298979510613,1.2600067565565747,0.1580824840680867,-2.1342287562035662
2022-12-06 15:33:25.1830,-0.2746419127613124,-1.157740840872757,0.20254878151310343,5.0824278044627045,1.9532137410641275,0.4470828771330513,1.350163676942174,0.18267900158912687,-2.2361067895108766
2022-12-06 15:33:25.1930,-0.3210115717089766,-1.2063224096839391,0.19999869788394647,5.740009590823139,2.465116236587837,0.5514469670276418,1.448419279861628,0.20843096610147302,-2.345996687855022
2022-12-06 15:33:25.2030,-0.3657797554567832,-1.26507382305693,0.18790815127154845,6.40125925653415,3.0871238955114446,0.7508900639790579,1.5535370062076186,0.23346090892624985,-2.4643528520294695
2022-12-06 15:33:25.2130,-0.40631473020629094,-1.3340031044299188,0.16587808349921002,7.0431611346421485,3.8253920715027943,1.0543695230159054,1.663589711589405,0.25526008898741825,-2.5912557574762447
2022-12-06 15:33:25.2230,-0.43948173965922216,-1.4122186296581503,0.13446834542156844,7.637837621467663,4.678802805688396,1.4618921453671536,1.7758475309623998,0.27080978435988573,-2.7261055253140514
2022-12-06 15:33:25.2330,-0.4617404707552117,-1.497708843942248,0.09525290740264988,8.152687198203099,5.6363522771065035,1.963323116003593,1.8866842703599866,0.2768328260335169,-2.8672296260283674
2022-12-06 15:33:25.2430,-0.4694008820529067,-1.587229381229451,0.05077329739644434,8.551881323353555,6.6751361347039575,2.5381776738703676,1.9915236565119079,0.27018442369538254,-3.011458678081021
2022-12-06 15:33:25.2530,-0.4590298618757554,-1.676357130404716,0.0043870583463680255,8.799397988059287,7.759600409522379,3.156453331978985,2.084849594289765,0.2483633804134421,-3.1537405120097053
2022-12-06 15:33:25.2630,-0.4279661612014042,-1.7597386106541526,-0.03998861112668645,8.863371983064871,8.842558667752757,3.7805341932412153,2.160301017600049,0.21007819324491145,-3.2868727765025674
2022-12-06 15:33:25.2730,-0.37487591975083584,-1.8315101286402273,-0.07823071749618177,8.721250424139729,9.86809155724097,4.368147841015584,2.210866426846032,0.15575487112755676,-3.4014503034535464
